sec,nanosec,ax,ay,az,wx,wy,wz,qw,qx,qy,qz
1746370415,347937597,-0.4740519287109375,-0.3112462158203125,9.739612353515625,0.009587379924285258,0.008522115488253563,0.005326322180158476,-0.5752217173576355,0.02927669882774353,-0.0009421308641321957,-0.8174729347229004
1746370415,367836316,-0.5123591552734374,-0.28730419921875,9.739612353515625,0.005326322180158476,0.011717908796348648,0.006391586616190171,-0.5751269459724426,0.029952002689242363,-0.0026416487526148558,-0.8175114989280701
1746370415,387892543,-0.5219359619140624,-0.239420166015625,9.749189160156249,-0.004261057744126781,0.009587379924285258,0.005326322180158476,-0.5750517249107361,0.029390109702944756,-0.004443626385182142,-0.8175770044326782
1746370415,407940706,-0.51714755859375,-0.239420166015625,9.725247143554688,-0.0021305288720633907,0.009587379924285258,0.0031957933080950856,-0.5750059485435486,0.028819480910897255,-0.005222829524427652,-0.8176248073577881
1746370415,427710367,-0.49799394531249996,-0.2537853759765625,9.730035546875,0.007456851052221867,0.004261057744126781,0.004261057744126781,-0.5750026702880859,0.02845071256160736,-0.0038902803789824247,-0.8176474571228027
1746370415,447886180,-0.4836287353515625,-0.24899697265624998,9.734823950195311,0.008522115488253563,0.0010652644360316954,0.004261057744126781,-0.574988067150116,0.027850233018398285,-0.003497103927657008,-0.8176801800727844
1746370415,467892006,-0.49320554199218747,-0.229843359375,9.753977563476562,0.0031957933080950856,0.010652644360316953,0.005326322180158476,-0.5749180316925049,0.02760126255452633,-0.005087549798190594,-0.8177295327186584
1746370415,487934568,-0.507570751953125,-0.229843359375,9.720458740234374,-0.0010652644360316954,0.01597896654047543,0.005326322180158476,-0.5748645067214966,0.02839381992816925,-0.005675976164638996,-0.8177361488342285
1746370415,507873001,-0.51714755859375,-0.229843359375,9.749189160156249,0.0,0.014913702104443734,0.005326322180158476,-0.574821412563324,0.028530417010188103,-0.005634651985019445,-0.8177619576454163
1746370415,527888651,-0.5315127685546874,-0.239420166015625,9.730035546875,0.004261057744126781,0.0031957933080950856,0.0031957933080950856,-0.5747615694999695,0.029541892930865288,-0.0058478121645748615,-0.8177666664123535
1746370415,547887852,-0.507570751953125,-0.24899697265624998,9.730035546875,0.005326322180158476,0.0,0.005326322180158476,-0.5747674703598022,0.028631670400500298,-0.004471471533179283,-0.8178035616874695
1746370415,568033201,-0.49320554199218747,-0.2442085693359375,9.749189160156249,-0.0021305288720633907,0.006391586616190171,0.005326322180158476,-0.5747503042221069,0.027771882712841034,-0.004316884558647871,-0.8178461194038391
1746370415,587881008,-0.45968671875,-0.2537853759765625,9.725247143554688,-0.004261057744126781,0.011717908796348648,0.004261057744126781,-0.5747644305229187,0.02689024619758129,-0.003139524022117257,-0.8178709745407104
1746370415,607992371,-0.45968671875,-0.26336218261718747,9.730035546875,-0.0010652644360316954,0.010652644360316953,0.004261057744126781,-0.574745774269104,0.02712402306497097,-0.002509753219783306,-0.8178786039352417
1746370415,627746832,-0.488417138671875,-0.27293898925781246,9.749189160156249,0.006391586616190171,0.008522115488253563,0.005326322180158476,-0.5746799111366272,0.028499489650130272,-0.0029784180223941803,-0.8178765177726746
1746370415,647914613,-0.507570751953125,-0.2825157958984375,9.725247143554688,0.004261057744126781,0.009587379924285258,0.005326322180158476,-0.5746184587478638,0.029791323468089104,-0.0030816313810646534,-0.8178731799125671
1746370415,667864310,-0.5267243652343749,-0.277727392578125,9.739612353515625,-0.0010652644360316954,0.011717908796348648,0.006391586616190171,-0.5745516419410706,0.03025052882730961,-0.0038902151864022017,-0.8179000020027161
1746370415,687932825,-0.5219359619140624,-0.26815058593749996,9.744400756835937,0.0021305288720633907,0.009587379924285258,0.004261057744126781,-0.5745217204093933,0.02968684956431389,-0.004040437284857035,-0.817940890789032
1746370415,707918650,-0.49320554199218747,-0.277727392578125,9.744400756835937,0.0031957933080950856,0.0031957933080950856,0.004261057744126781,-0.5745131969451904,0.029142849147319794,-0.0033459896221756935,-0.817969560623169
1746370415,727746169,-0.4644751220703125,-0.258573779296875,9.720458740234374,0.010652644360316953,0.0021305288720633907,0.004261057744126781,-0.5745082497596741,0.02750616893172264,-0.002859582891687751,-0.8180316090583801
1746370415,747923102,-0.4740519287109375,-0.229843359375,9.739612353515625,0.005326322180158476,0.007456851052221867,0.006391586616190171,-0.574435293674469,0.026627929881215096,-0.0043799178674817085,-0.8181050419807434
1746370415,767858302,-0.4836287353515625,-0.229843359375,9.739612353515625,-0.0010652644360316954,0.01810949541253882,0.008522115488253563,-0.5743757486343384,0.027033668011426926,-0.004889034666121006,-0.8181307315826416
1746370415,787896129,-0.5027823486328125,-0.2346317626953125,9.744400756835937,-0.0021305288720633907,0.01384843766841204,0.006391586616190171,-0.5743341445922852,0.02807469479739666,-0.004802890121936798,-0.8181253671646118
1746370415,807883970,-0.5123591552734374,-0.22505495605468748,9.753977563476562,-0.0010652644360316954,0.0031957933080950856,0.004261057744126781,-0.5742743611335754,0.028278442099690437,-0.005857453215867281,-0.818153440952301
1746370415,827741249,-0.507570751953125,-0.229843359375,9.706093530273437,0.006391586616190171,0.0021305288720633907,0.004261057744126781,-0.5742403864860535,0.02842346951365471,-0.005489060189574957,-0.8181748390197754
1746370415,848635316,-0.49799394531249996,-0.2346317626953125,9.744400756835937,0.004261057744126781,0.0010652644360316954,0.005326322180158476,-0.5742174983024597,0.027680406346917152,-0.004871717654168606,-0.818220317363739
1746370415,867827206,-0.49799394531249996,-0.26815058593749996,9.739612353515625,0.0021305288720633907,0.005326322180158476,0.005326322180158476,-0.5741927623748779,0.028797516599297523,-0.0034887094516307116,-0.8182061314582825
1746370415,888648151,-0.47884033203125,-0.296881005859375,9.749189160156249,0.0,0.01384843766841204,0.007456851052221867,-0.57419753074646,0.028837228193879128,-0.0017259030137211084,-0.8182070851325989
1746370415,907822505,-0.49799394531249996,-0.296881005859375,9.758765966796874,0.0,0.01384843766841204,0.004261057744126781,-0.5741373300552368,0.02963237091898918,-0.002243870170786977,-0.8182196021080017
1746370415,928244595,-0.5123591552734374,-0.27293898925781246,9.734823950195311,0.0031957933080950856,0.005326322180158476,0.005326322180158476,-0.5740591883659363,0.029665406793355942,-0.003956119995564222,-0.8182666897773743
1746370415,947999632,-0.5123591552734374,-0.258573779296875,9.725247143554688,0.0021305288720633907,0.0021305288720633907,0.005326322180158476,-0.5740234851837158,0.02933618053793907,-0.00421656621620059,-0.8183022737503052
1746370415,968446330,-0.5123591552734374,-0.27293898925781246,9.725247143554688,0.0031957933080950856,0.006391586616190171,0.005326322180158476,-0.5739869475364685,0.029633779078722,-0.003726353170350194,-0.8183196783065796
1746370415,987936626,-0.4836287353515625,-0.2920926025390625,9.749189160156249,0.0,0.009587379924285258,0.005326322180158476,-0.5740025639533997,0.02903137169778347,-0.0021162484772503376,-0.818336009979248
1746370416,7914707,-0.47884033203125,-0.277727392578125,9.758765966796874,0.0031957933080950856,0.009587379924285258,0.006391586616190171,-0.5739821791648865,0.02812647633254528,-0.0019934591837227345,-0.818382203578949
1746370416,28988618,-0.4836287353515625,-0.2442085693359375,9.739612353515625,0.007456851052221867,0.007456851052221867,0.0031957933080950856,-0.5739135146141052,0.02759735845029354,-0.003827772568911314,-0.8184418678283691
1746370416,47833653,-0.49320554199218747,-0.22026655273437498,9.710881933593749,0.007456851052221867,0.008522115488253563,0.005326322180158476,-0.5738412737846375,0.027036098763346672,-0.005344612989574671,-0.8185027241706848
1746370416,68790601,-0.49799394531249996,-0.229843359375,9.749189160156249,0.0021305288720633907,0.012783173232380343,0.006391586616190171,-0.5737919211387634,0.027864009141921997,-0.005110465455800295,-0.8185110092163086
1746370416,87842520,-0.51714755859375,-0.258573779296875,9.758765966796874,-0.0031957933080950856,0.010652644360316953,0.005326322180158476,-0.5737522840499878,0.029367895796895027,-0.004340519197285175,-0.8184906840324402
1746370416,109620348,-0.51714755859375,-0.239420166015625,9.749189160156249,-0.0010652644360316954,0.006391586616190171,0.006391586616190171,-0.573695182800293,0.02876439318060875,-0.005140559282153845,-0.8185474872589111
1746370416,127858492,-0.4836287353515625,-0.229843359375,9.701305126953125,0.004261057744126781,0.0010652644360316954,0.0031957933080950856,-0.5736789107322693,0.02733374387025833,-0.0048539284616708755,-0.8186097741127014
1746370416,148372135,-0.469263525390625,-0.239420166015625,9.725247143554688,0.0021305288720633907,0.0031957933080950856,0.005326322180158476,-0.573665976524353,0.027128713205456734,-0.003687906777486205,-0.8186317086219788
1746370416,167924288,-0.4740519287109375,-0.26336218261718747,9.763554370117188,-0.0031957933080950856,0.012783173232380343,0.0031957933080950856,-0.5736424326896667,0.027668839320540428,-0.002807339420542121,-0.8186336159706116
1746370416,188142086,-0.49799394531249996,-0.28730419921875,9.758765966796874,-0.005326322180158476,0.011717908796348648,0.007456851052221867,-0.573574423789978,0.02945025824010372,-0.00263885292224586,-0.8186196684837341
1746370416,207879075,-0.5027823486328125,-0.2825157958984375,9.725247143554688,0.0010652644360316954,0.008522115488253563,0.005326322180158476,-0.5735198259353638,0.02943185716867447,-0.0029448969289660454,-0.8186575770378113
1746370416,227930661,-0.49320554199218747,-0.26336218261718747,9.701305126953125,0.005326322180158476,0.0010652644360316954,0.0031957933080950856,-0.5734781622886658,0.0286338422447443,-0.003429789561778307,-0.8187131881713867
1746370416,247899110,-0.49320554199218747,-0.26336218261718747,9.734823950195311,0.0031957933080950856,0.0031957933080950856,0.004261057744126781,-0.5734415650367737,0.02862934209406376,-0.0033847554586827755,-0.818739116191864
1746370416,268401713,-0.488417138671875,-0.26815058593749996,9.758765966796874,0.0,0.010652644360316953,0.007456851052221867,-0.573406994342804,0.028521522879600525,-0.002950933761894703,-0.8187687397003174
1746370416,287981771,-0.49799394531249996,-0.28730419921875,9.763554370117188,-0.0010652644360316954,0.01384843766841204,0.004261057744126781,-0.5733727216720581,0.029352590441703796,-0.0025804864708334208,-0.8187646865844727
1746370416,308338419,-0.47884033203125,-0.2920926025390625,9.758765966796874,0.0031957933080950856,0.011717908796348648,0.004261057744126781,-0.5733675956726074,0.028545456007122993,-0.0018155811121687293,-0.8187987804412842
1746370416,327848012,-0.49320554199218747,-0.277727392578125,9.720458740234374,0.007456851052221867,0.007456851052221867,0.0031957933080950856,-0.5733024477958679,0.02887352555990219,-0.002751232823356986,-0.8188303709030151
1746370416,348295670,-0.5219359619140624,-0.2442085693359375,9.739612353515625,0.0010652644360316954,0.006391586616190171,0.007456851052221867,-0.5732090473175049,0.029077788814902306,-0.004645830951631069,-0.8188799023628235
1746370416,367880847,-0.507570751953125,-0.24899697265624998,9.758765966796874,-0.0031957933080950856,0.009587379924285258,0.005326322180158476,-0.5731789469718933,0.028689486905932426,-0.004618629813194275,-0.8189148306846619
1746370416,388452156,-0.5027823486328125,-0.258573779296875,9.7683427734375,-0.0021305288720633907,0.008522115488253563,0.005326322180158476,-0.5731648206710815,0.028707707300782204,-0.0037404149770736694,-0.818928599357605
1746370416,407873202,-0.47884033203125,-0.229843359375,9.744400756835937,0.0,0.0021305288720633907,0.004261057744126781,-0.5731399655342102,0.02695940062403679,-0.004374037496745586,-0.8190022706985474
1746370416,427978646,-0.47884033203125,-0.2154781494140625,9.720458740234374,0.0031957933080950856,0.004261057744126781,0.004261057744126781,-0.5730932950973511,0.026487160474061966,-0.0050354646518826485,-0.8190464973449707
1746370416,448017176,-0.488417138671875,-0.2442085693359375,9.734823950195311,-0.0021305288720633907,0.009587379924285258,0.005326322180158476,-0.573053777217865,0.027790624648332596,-0.004066779278218746,-0.8190363645553589
1746370416,467915768,-0.5027823486328125,-0.2920926025390625,9.763554370117188,-0.0031957933080950856,0.014913702104443734,0.007456851052221867,-0.5730262398719788,0.029242629185318947,-0.0029189714696258307,-0.8190099000930786
1746370416,487886041,-0.507570751953125,-0.2920926025390625,9.758765966796874,-0.0021305288720633907,0.011717908796348648,0.006391586616190171,-0.5729843378067017,0.02973908744752407,-0.002670822199434042,-0.8190223574638367
1746370416,507937180,-0.5027823486328125,-0.26336218261718747,9.725247143554688,0.004261057744126781,0.0021305288720633907,0.004261057744126781,-0.5729333758354187,0.028913643211126328,-0.0037350738421082497,-0.8190833330154419
1746370416,528041279,-0.4836287353515625,-0.258573779296875,9.715670336914062,0.005326322180158476,0.0021305288720633907,0.005326322180158476,-0.5729110240936279,0.028058208525180817,-0.003299777628853917,-0.819130539894104
1746370416,547846749,-0.4740519287109375,-0.296881005859375,9.753977563476562,0.006391586616190171,0.004261057744126781,0.005326322180158476,-0.5728977918624878,0.028663814067840576,-0.0017331767594441772,-0.8191236257553101
1746370416,568077091,-0.4836287353515625,-0.3016694091796875,9.758765966796874,0.005326322180158476,0.006391586616190171,0.005326322180158476,-0.5728476643562317,0.029292883351445198,-0.0017035213531926274,-0.8191365003585815
1746370416,587812704,-0.49320554199218747,-0.2825157958984375,9.734823950195311,0.0021305288720633907,0.01384843766841204,0.006391586616190171,-0.5727880597114563,0.02899249456822872,-0.002951171714812517,-0.8191853165626526
1746370416,608984952,-0.4836287353515625,-0.2537853759765625,9.720458740234374,-0.0021305288720633907,0.011717908796348648,0.004261057744126781,-0.5727569460868835,0.02789454162120819,-0.0037536590825766325,-0.8192418813705444
1746370416,627857764,-0.4836287353515625,-0.239420166015625,9.725247143554688,0.0021305288720633907,0.008522115488253563,0.004261057744126781,-0.5727034211158752,0.027672600001096725,-0.004204860422760248,-0.8192847371101379
1746370416,647858885,-0.51714755859375,-0.277727392578125,9.763554370117188,0.007456851052221867,0.0021305288720633907,0.004261057744126781,-0.5726569294929504,0.029316265136003494,-0.003631388768553734,-0.8192627429962158
1746370416,668201326,-0.507570751953125,-0.258573779296875,9.763554370117188,0.0031957933080950856,0.006391586616190171,0.006391586616190171,-0.5726091861724854,0.028835300356149673,-0.004057840909808874,-0.8193112015724182
1746370416,687780583,-0.47884033203125,-0.26336218261718747,9.739612353515625,-0.004261057744126781,0.011717908796348648,0.0031957933080950856,-0.5726239085197449,0.027709078043699265,-0.002870981115847826,-0.8193448185920715
1746370416,707999725,-0.4836287353515625,-0.229843359375,9.720458740234374,-0.0021305288720633907,0.009587379924285258,0.004261057744126781,-0.5725573301315308,0.027116170153021812,-0.004468570929020643,-0.8194040060043335
1746370416,727871116,-0.49799394531249996,-0.2346317626953125,9.725247143554688,0.0,0.0031957933080950856,0.005326322180158476,-0.5724869966506958,0.027851710096001625,-0.004782157018780708,-0.8194267749786377
1746370416,748026929,-0.507570751953125,-0.2825157958984375,9.758765966796874,0.0031957933080950856,0.0021305288720633907,0.006391586616190171,-0.5724546313285828,0.02922368235886097,-0.0035345449578016996,-0.8194078803062439
1746370416,767903056,-0.5027823486328125,-0.3016694091796875,9.753977563476562,0.0010652644360316954,0.006391586616190171,0.008522115488253563,-0.5724329948425293,0.029921911656856537,-0.001959331799298525,-0.8194030523300171
1746370416,787832400,-0.49799394531249996,-0.3064578125,9.744400756835937,-0.004261057744126781,0.008522115488253563,0.006391586616190171,-0.5724057555198669,0.029899969696998596,-0.0017447930295020342,-0.8194233179092407
1746370416,807898931,-0.4836287353515625,-0.2920926025390625,9.739612353515625,-0.0010652644360316954,0.008522115488253563,0.005326322180158476,-0.5723710656166077,0.028906317427754402,-0.0018117919098585844,-0.8194831609725952
1746370416,828030103,-0.4836287353515625,-0.2920926025390625,9.734823950195311,0.006391586616190171,0.0031957933080950856,0.0031957933080950856,-0.5723361372947693,0.029015906155109406,-0.0017568382900208235,-0.8195037841796875
1746370416,847799092,-0.47884033203125,-0.2920926025390625,9.758765966796874,0.007456851052221867,0.006391586616190171,0.0031957933080950856,-0.5723111033439636,0.028787201270461082,-0.0014478183584287763,-0.8195299506187439
1746370416,868113244,-0.49320554199218747,-0.277727392578125,9.753977563476562,0.0021305288720633907,0.012783173232380343,0.006391586616190171,-0.5722328424453735,0.028620684519410133,-0.003145235124975443,-0.8195855617523193
1746370416,888115710,-0.488417138671875,-0.27293898925781246,9.725247143554688,0.0010652644360316954,0.01384843766841204,0.005326322180158476,-0.5722056031227112,0.028528640046715736,-0.0029779381584376097,-0.8196085095405579
1746370416,907942460,-0.49799394531249996,-0.2537853759765625,9.720458740234374,0.0010652644360316954,0.007456851052221867,0.0021305288720633907,-0.572149932384491,0.0283853430300951,-0.00408188346773386,-0.8196476101875305
1746370416,927841019,-0.49799394531249996,-0.24899697265624998,9.725247143554688,0.007456851052221867,0.0031957933080950856,0.0031957933080950856,-0.572109043598175,0.02841869741678238,-0.004076808225363493,-0.8196749687194824
1746370416,948009440,-0.5123591552734374,-0.2442085693359375,9.725247143554688,0.0031957933080950856,0.005326322180158476,0.006391586616190171,-0.5720444917678833,0.0289852786809206,-0.004658996593207121,-0.8196971416473389
1746370416,967905888,-0.5123591552734374,-0.26336218261718747,9.749189160156249,-0.0021305288720633907,0.010652644360316953,0.004261057744126781,-0.5720253586769104,0.029006987810134888,-0.0040399665012955666,-0.8197129964828491
1746370416,988028548,-0.49799394531249996,-0.258573779296875,9.758765966796874,-0.0021305288720633907,0.010652644360316953,0.0031957933080950856,-0.5720130801200867,0.028422510251402855,-0.003719570115208626,-0.8197434544563293
1746370417,7942852,-0.4836287353515625,-0.24899697265624998,9.720458740234374,0.0010652644360316954,0.007456851052221867,0.005326322180158476,-0.5719752311706543,0.027640098705887794,-0.0038826570380479097,-0.8197959065437317
1746370417,28031111,-0.488417138671875,-0.24899697265624998,9.6917283203125,0.0021305288720633907,0.0031957933080950856,0.005326322180158476,-0.5719336271286011,0.02776535600423813,-0.0036949573550373316,-0.8198215961456299
1746370417,47815844,-0.488417138671875,-0.26815058593749996,9.720458740234374,0.0,0.006391586616190171,0.005326322180158476,-0.5718981027603149,0.02866441197693348,-0.0029355515725910664,-0.8198184370994568
1746370417,68000105,-0.4836287353515625,-0.28730419921875,9.758765966796874,-0.004261057744126781,0.010652644360316953,0.006391586616190171,-0.5718704462051392,0.02867458388209343,-0.0022400026209652424,-0.8198396563529968
1746370417,87939946,-0.488417138671875,-0.3016694091796875,9.7683427734375,-0.0010652644360316954,0.010652644360316953,0.005326322180158476,-0.5718419551849365,0.029280049726366997,-0.0016709845513105392,-0.8198394775390625
1746370417,107987564,-0.49320554199218747,-0.27293898925781246,9.725247143554688,0.0031957933080950856,0.005326322180158476,0.0031957933080950856,-0.5717781782150269,0.028504861518740654,-0.00312079512514174,-0.819907009601593
1746370417,127754121,-0.49799394531249996,-0.258573779296875,9.706093530273437,0.004261057744126781,0.005326322180158476,0.004261057744126781,-0.5717275142669678,0.028485868126153946,-0.0039564440958201885,-0.8199394345283508
1746370417,148018512,-0.507570751953125,-0.27293898925781246,9.758765966796874,0.0021305288720633907,0.007456851052221867,0.006391586616190171,-0.5716922283172607,0.02900642715394497,-0.0031969451811164618,-0.8199491500854492
1746370417,167915407,-0.488417138671875,-0.277727392578125,9.758765966796874,-0.0010652644360316954,0.012783173232380343,0.005326322180158476,-0.5716760158538818,0.028568727895617485,-0.0027112120296806097,-0.8199774026870728
1746370417,188481596,-0.49320554199218747,-0.2825157958984375,9.763554370117188,0.0021305288720633907,0.011717908796348648,0.004261057744126781,-0.571629524230957,0.02919744700193405,-0.0029088128358125687,-0.8199871182441711
1746370417,207925587,-0.49320554199218747,-0.239420166015625,9.730035546875,0.004261057744126781,0.006391586616190171,0.0021305288720633907,-0.5715799331665039,0.02792714163661003,-0.004145938437432051,-0.8200605511665344
1746370417,227862387,-0.5123591552734374,-0.2346317626953125,9.725247143554688,0.005326322180158476,0.005326322180158476,0.004261057744126781,-0.5715128183364868,0.028484180569648743,-0.005163314752280712,-0.820082426071167
1746370417,247988759,-0.49799394531249996,-0.27293898925781246,9.7683427734375,0.007456851052221867,0.0031957933080950856,0.006391586616190171,-0.5715013146400452,0.028866633772850037,-0.0033969786018133163,-0.8200863003730774
1746370417,267865238,-0.5123591552734374,-0.26815058593749996,9.773131176757811,0.0031957933080950856,0.006391586616190171,0.005326322180158476,-0.571442186832428,0.02934073470532894,-0.0037248486187309027,-0.8201092481613159
1746370417,288045531,-0.5027823486328125,-0.239420166015625,9.734823950195311,-0.0031957933080950856,0.011717908796348648,0.006391586616190171,-0.5713951587677002,0.028034094721078873,-0.004666294902563095,-0.8201828002929688
1746370417,307916474,-0.488417138671875,-0.2442085693359375,9.744400756835937,-0.005326322180158476,0.009587379924285258,0.0031957933080950856,-0.5713770389556885,0.027730127796530724,-0.004030606709420681,-0.8202092051506042
1746370417,328046558,-0.47884033203125,-0.27293898925781246,9.739612353515625,0.0021305288720633907,0.006391586616190171,0.0031957933080950856,-0.5713812112808228,0.028271012008190155,-0.0023947497829794884,-0.8201943039894104
1746370417,347877596,-0.47884033203125,-0.26336218261718747,9.734823950195311,0.004261057744126781,0.004261057744126781,0.004261057744126781,-0.5713241100311279,0.0279291570186615,-0.0030210574623197317,-0.8202437162399292
1746370417,368002464,-0.488417138671875,-0.2825157958984375,9.749189160156249,0.0021305288720633907,0.009587379924285258,0.006391586616190171,-0.5712844729423523,0.02884814888238907,-0.0024782835971564054,-0.8202413320541382
1746370417,387911648,-0.507570751953125,-0.296881005859375,9.753977563476562,-0.0010652644360316954,0.01384843766841204,0.005326322180158476,-0.5712334513664246,0.030037015676498413,-0.0023939767852425575,-0.8202344179153442
1746370417,407896481,-0.5027823486328125,-0.277727392578125,9.749189160156249,0.0031957933080950856,0.008522115488253563,0.0031957933080950856,-0.5712061524391174,0.02939441241323948,-0.00287986290641129,-0.820275068283081
1746370417,427848354,-0.51714755859375,-0.2537853759765625,9.739612353515625,0.0031957933080950856,0.005326322180158476,0.005326322180158476,-0.5711182951927185,0.02908163331449032,-0.0045681605115532875,-0.8203398585319519
1746370417,448318829,-0.49799394531249996,-0.258573779296875,9.725247143554688,0.005326322180158476,0.004261057744126781,0.005326322180158476,-0.5711092948913574,0.028603846207261086,-0.0037198297213763,-0.820367157459259
1746370417,467986600,-0.5027823486328125,-0.258573779296875,9.739612353515625,0.0021305288720633907,0.008522115488253563,0.005326322180158476,-0.5710685849189758,0.029064849019050598,-0.0038628284819424152,-0.8203786611557007
1746370417,487997353,-0.49320554199218747,-0.24899697265624998,9.758765966796874,-0.0021305288720633907,0.009587379924285258,0.006391586616190171,-0.5710393786430359,0.028244996443390846,-0.004006537143141031,-0.820426881313324
1746370417,507913801,-0.469263525390625,-0.239420166015625,9.744400756835937,-0.0010652644360316954,0.009587379924285258,0.004261057744126781,-0.5710448026657104,0.026506569236516953,-0.0035379817709326744,-0.8204832673072815
1746370417,528021325,-0.49799394531249996,-0.22505495605468748,9.696516723632811,0.005326322180158476,0.006391586616190171,0.004261057744126781,-0.5709493160247803,0.027643509209156036,-0.005088886711746454,-0.8205040097236633
1746370417,547813674,-0.49320554199218747,-0.2442085693359375,9.744400756835937,0.0031957933080950856,0.008522115488253563,0.004261057744126781,-0.570932149887085,0.02790726162493229,-0.004175219219177961,-0.8205121755599976
1746370417,568096017,-0.507570751953125,-0.2442085693359375,9.777919580078125,-0.0021305288720633907,0.011717908796348648,0.006391586616190171,-0.5708838701248169,0.02826419472694397,-0.0042476714588701725,-0.8205332159996033
1746370417,588014929,-0.507570751953125,-0.2442085693359375,9.744400756835937,-0.0021305288720633907,0.009587379924285258,0.005326322180158476,-0.5708368420600891,0.0285041444003582,-0.004622205160558224,-0.8205556273460388
1746370417,608057172,-0.5027823486328125,-0.21068974609375,9.701305126953125,0.0,0.007456851052221867,0.005326322180158476,-0.5707759261131287,0.027360079810023308,-0.006067132111638784,-0.8206275105476379
1746370417,627868850,-0.49320554199218747,-0.2346317626953125,9.715670336914062,0.0031957933080950856,0.0021305288720633907,0.004261057744126781,-0.5707594156265259,0.02772790752351284,-0.004627918358892202,-0.8206360340118408
1746370417,648153401,-0.49320554199218747,-0.26336218261718747,9.753977563476562,0.0031957933080950856,0.005326322180158476,0.0031957933080950856,-0.5707419514656067,0.028537524864077568,-0.0033506026957184076,-0.8206266164779663
1746370417,667910645,-0.4836287353515625,-0.2920926025390625,9.773131176757811,-0.0031957933080950856,0.011717908796348648,0.006391586616190171,-0.5707261562347412,0.028865540400147438,-0.0018967636860907078,-0.8206308484077454
1746370417,688013369,-0.49320554199218747,-0.2825157958984375,9.720458740234374,-0.004261057744126781,0.012783173232380343,0.005326322180158476,-0.5706761479377747,0.029147744178771973,-0.002571888966485858,-0.8206537961959839
1746370417,707839607,-0.49799394531249996,-0.2537853759765625,9.720458740234374,0.0031957933080950856,0.007456851052221867,0.005326322180158476,-0.5706068873405457,0.028293035924434662,-0.0038921821396797895,-0.820726752281189
1746370417,727879353,-0.4836287353515625,-0.26815058593749996,9.730035546875,0.006391586616190171,0.0010652644360316954,0.005326322180158476,-0.5705966353416443,0.028215045109391212,-0.002785639138892293,-0.8207409381866455
1746370417,748014590,-0.488417138671875,-0.26815058593749996,9.749189160156249,0.0031957933080950856,0.007456851052221867,0.007456851052221867,-0.5705481767654419,0.028408141806721687,-0.0029629406053572893,-0.820767343044281
1746370417,768171682,-0.49799394531249996,-0.239420166015625,9.734823950195311,0.0,0.010652644360316953,0.005326322180158476,-0.5704739689826965,0.027884889394044876,-0.004679606296122074,-0.820828914642334
1746370417,788012193,-0.4836287353515625,-0.2442085693359375,9.725247143554688,-0.004261057744126781,0.011717908796348648,0.0031957933080950856,-0.5704634785652161,0.027559226378798485,-0.004057113081216812,-0.8208504915237427
1746370417,808244711,-0.47884033203125,-0.2537853759765625,9.730035546875,0.004261057744126781,0.009587379924285258,0.0021305288720633907,-0.5704504251480103,0.02735792100429535,-0.0032126076985150576,-0.820870041847229
1746370417,828044996,-0.5027823486328125,-0.2442085693359375,9.753977563476562,0.006391586616190171,0.0031957933080950856,0.005326322180158476,-0.5703594088554382,0.02855856530368328,-0.0045152404345571995,-0.8208863139152527
1746370417,847919427,-0.507570751953125,-0.2442085693359375,9.739612353515625,0.0010652644360316954,0.007456851052221867,0.004261057744126781,-0.5703242421150208,0.02871314063668251,-0.0046190256252884865,-0.8209047317504883
1746370417,868052583,-0.5123591552734374,-0.2346317626953125,9.730035546875,-0.006391586616190171,0.008522115488253563,0.007456851052221867,-0.5702654123306274,0.028549589216709137,-0.005244730040431023,-0.820947527885437
1746370417,887903590,-0.5123591552734374,-0.2537853759765625,9.715670336914062,-0.004261057744126781,0.010652644360316953,0.004261057744126781,-0.5702306032180786,0.02915385365486145,-0.004592112731188536,-0.8209543824195862
1746370417,908082379,-0.49799394531249996,-0.2442085693359375,9.758765966796874,0.0031957933080950856,0.0010652644360316954,0.0031957933080950856,-0.5702049732208252,0.02830343134701252,-0.004380968399345875,-0.8210031986236572
1746370417,927847464,-0.4836287353515625,-0.2537853759765625,9.749189160156249,0.008522115488253563,0.0031957933080950856,0.004261057744126781,-0.5701911449432373,0.027838628739118576,-0.0037632735911756754,-0.8210315704345703
1746370417,948014253,-0.488417138671875,-0.24899697265624998,9.730035546875,0.005326322180158476,0.004261057744126781,0.004261057744126781,-0.5701521635055542,0.027882535010576248,-0.0038126762956380844,-0.8210570812225342
1746370417,967870124,-0.488417138671875,-0.2537853759765625,9.720458740234374,0.0010652644360316954,0.009587379924285258,0.0031957933080950856,-0.5701209902763367,0.027871761471033096,-0.003575987182557583,-0.8210801482200623
1746370417,988024336,-0.4836287353515625,-0.26336218261718747,9.744400756835937,-0.004261057744126781,0.01384843766841204,0.005326322180158476,-0.5700902938842773,0.027944086119532585,-0.003281107870861888,-0.8211001753807068
1746370418,7892079,-0.49799394531249996,-0.2537853759765625,9.753977563476562,0.0010652644360316954,0.009587379924285258,0.004261057744126781,-0.5700383186340332,0.02834373526275158,-0.0038774432614445686,-0.8211199045181274
1746370418,28228119,-0.507570751953125,-0.258573779296875,9.734823950195311,0.006391586616190171,0.0021305288720633907,0.0031957933080950856,-0.5699812769889832,0.02913583815097809,-0.004170629195868969,-0.8211304545402527
1746370418,47995956,-0.49320554199218747,-0.239420166015625,9.739612353515625,0.007456851052221867,0.006391586616190171,0.004261057744126781,-0.5699641108512878,0.027653953060507774,-0.00411878852173686,-0.8211938738822937
1746370418,68019286,-0.49799394531249996,-0.26336218261718747,9.734823950195311,0.0010652644360316954,0.011717908796348648,0.006391586616190171,-0.569929838180542,0.028803931549191475,-0.0033553424291312695,-0.8211815357208252
1746370418,87874517,-0.4836287353515625,-0.2537853759765625,9.749189160156249,-0.0021305288720633907,0.01384843766841204,0.005326322180158476,-0.5699079036712646,0.027554839849472046,-0.0033670084085315466,-0.8212396502494812
1746370418,108021113,-0.49320554199218747,-0.229843359375,9.753977563476562,0.0021305288720633907,0.008522115488253563,0.005326322180158476,-0.569839358329773,0.02718849666416645,-0.004848344251513481,-0.821291983127594
1746370418,127879736,-0.51714755859375,-0.22505495605468748,9.720458740234374,0.004261057744126781,0.004261057744126781,0.005326322180158476,-0.56977379322052,0.028242100030183792,-0.005245380103588104,-0.8212994933128357
1746370418,148045692,-0.51714755859375,-0.24899697265624998,9.734823950195311,0.0021305288720633907,0.005326322180158476,0.005326322180158476,-0.569738507270813,0.029155034571886063,-0.004297500476241112,-0.8212974667549133
1746370418,167894939,-0.5027823486328125,-0.258573779296875,9.749189160156249,0.0010652644360316954,0.007456851052221867,0.008522115488253563,-0.5697212815284729,0.028571803122758865,-0.003718533320352435,-0.8213328719139099
1746370418,188172514,-0.488417138671875,-0.258573779296875,9.739612353515625,-0.004261057744126781,0.008522115488253563,0.004261057744126781,-0.5697038173675537,0.027927875518798828,-0.003642613533884287,-0.8213674426078796
1746370418,207835164,-0.488417138671875,-0.2346317626953125,9.715670336914062,-0.0010652644360316954,0.006391586616190171,0.005326322180158476,-0.5696482062339783,0.027554215863347054,-0.004562360234558582,-0.8214139342308044
1746370418,228123555,-0.47884033203125,-0.24899697265624998,9.749189160156249,0.005326322180158476,0.004261057744126781,0.004261057744126781,-0.5696176886558533,0.02733025513589382,-0.0038768313825130463,-0.8214461803436279
1746370418,248010915,-0.4740519287109375,-0.26815058593749996,9.739612353515625,0.0010652644360316954,0.007456851052221867,0.004261057744126781,-0.569609522819519,0.02759305201470852,-0.0024447988253086805,-0.8214485049247742
1746370418,268016420,-0.49799394531249996,-0.277727392578125,9.739612353515625,-0.0031957933080950856,0.010652644360316953,0.006391586616190171,-0.5695432424545288,0.02916986122727394,-0.0028919298201799393,-0.8214384913444519
1746370418,287898499,-0.49799394531249996,-0.28730419921875,9.758765966796874,0.0021305288720633907,0.011717908796348648,0.0031957933080950856,-0.5695264935493469,0.029505209997296333,-0.002481990959495306,-0.8214395046234131
1746370418,307915525,-0.4836287353515625,-0.26815058593749996,9.773131176757811,0.004261057744126781,0.007456851052221867,0.0021305288720633907,-0.569510281085968,0.028139986097812653,-0.0027795673813670874,-0.8214977383613586
1746370418,327911687,-0.488417138671875,-0.22505495605468748,9.710881933593749,0.007456851052221867,0.006391586616190171,0.004261057744126781,-0.5694369673728943,0.02745227888226509,-0.004531413782387972,-0.8215640783309937
1746370418,348206798,-0.507570751953125,-0.22026655273437498,9.720458740234374,0.0031957933080950856,0.008522115488253563,0.005326322180158476,-0.5693737864494324,0.027789801359176636,-0.00533966813236475,-0.8215915560722351
1746370418,367908586,-0.5410895751953124,-0.229843359375,9.7683427734375,-0.0021305288720633907,0.012783173232380343,0.005326322180158476,-0.5693010091781616,0.02953549474477768,-0.006175357848405838,-0.8215753436088562
1746370418,388092879,-0.5267243652343749,-0.229843359375,9.734823950195311,-0.0031957933080950856,0.009587379924285258,0.005326322180158476,-0.5692935585975647,0.02888076938688755,-0.0056164879351854324,-0.821607768535614
1746370418,407895148,-0.5219359619140624,-0.229843359375,9.730035546875,0.0021305288720633907,0.0010652644360316954,0.0021305288720633907,-0.5692585110664368,0.02883555181324482,-0.005705840885639191,-0.8216329216957092
1746370418,427794732,-0.488417138671875,-0.22026655273437498,9.734823950195311,0.007456851052221867,-0.0010652644360316954,0.005326322180158476,-0.5692475438117981,0.02719670720398426,-0.005138106644153595,-0.8217002749443054
1746370418,448029170,-0.4740519287109375,-0.2154781494140625,9.725247143554688,-0.0021305288720633907,0.008522115488253563,0.007456851052221867,-0.5692142844200134,0.026452073827385902,-0.004799507092684507,-0.8217496275901794
1746370418,467921489,-0.488417138671875,-0.22505495605468748,9.739612353515625,-0.009587379924285258,0.01597896654047543,0.006391586616190171,-0.5691431164741516,0.027178538963198662,-0.005048240534961224,-0.8217736482620239
1746370418,488497982,-0.5123591552734374,-0.26815058593749996,9.758765966796874,-0.007456851052221867,0.014913702104443734,0.006391586616190171,-0.5690942406654358,0.02855902537703514,-0.004295108839869499,-0.8217650055885315
1746370418,507845586,-0.5315127685546874,-0.3447650390625,9.730035546875,0.0,0.0031957933080950856,0.004261057744126781,-0.5690533518791199,0.03009752184152603,-0.003153953468427062,-0.8217436671257019
1746370418,527902069,-0.5315127685546874,-0.3447650390625,9.753977563476562,0.010652644360316953,-0.006391586616190171,0.005326322180158476,-0.5690288543701172,0.03148017078638077,-0.0019496672321110964,-0.8217125535011292
1746370418,547836789,-0.47884033203125,-0.3064578125,9.792284790039062,0.006391586616190171,-0.0010652644360316954,0.006391586616190171,-0.5690441131591797,0.03024301677942276,-0.0009973677806556225,-0.8217501044273376
1746370418,563469250,-0.430956298828125,-0.26336218261718747,9.715670336914062,0.0,0.009587379924285258,0.0031957933080950856,-0.569040834903717,0.028361521661281586,-0.0012022793525829911,-0.8218192458152771
1746370418,587999675,-0.4213794921875,-0.258573779296875,9.715670336914062,-0.0010652644360316954,0.014913702104443734,0.006391586616190171,-0.5690248608589172,0.026570601388812065,-0.0013914232840761542,-0.8218898773193359
1746370418,608182656,-0.44532150878906246,-0.296881005859375,9.763554370117188,0.008522115488253563,0.017044230976507126,0.0010652644360316954,-0.5690054297447205,0.026953324675559998,-0.0006472861277870834,-0.821891725063324
1746370418,628151169,-0.5027823486328125,-0.3016694091796875,9.782707983398437,0.019174759848570515,0.014913702104443734,0.0021305288720633907,-0.56894451379776,0.028760433197021484,-0.0011493918718770146,-0.8218719959259033
1746370418,648236228,-0.565031591796875,-0.15322890625,9.715670336914062,0.01597896654047543,0.009587379924285258,0.005326322180158476,-0.5688580274581909,0.028944959864020348,-0.0031835935078561306,-0.8219201564788818
1746370418,668021921,-0.565031591796875,-0.1149216796875,9.667786303710937,-0.0021305288720633907,0.008522115488253563,0.008522115488253563,-0.5687675476074219,0.028769589960575104,-0.005084751173853874,-0.8219793438911438
1746370418,688974613,-0.5746083984375,-0.1580173095703125,9.710881933593749,-0.012783173232380343,0.006391586616190171,0.008522115488253563,-0.5686708688735962,0.028662491589784622,-0.006861303001642227,-0.8220370411872864
1746370418,707885442,-0.5506663818359374,-0.2442085693359375,9.801861596679688,-0.004261057744126781,0.0,0.007456851052221867,-0.5686051249504089,0.029684515669941902,-0.0068416902795434,-0.8220463991165161
1746370418,728100103,-0.49320554199218747,-0.2537853759765625,9.758765966796874,0.0031957933080950856,-0.0031957933080950856,0.004261057744126781,-0.5686087608337402,0.029213743284344673,-0.005118479486554861,-0.8220733404159546
1746370418,747999879,-0.4644751220703125,-0.2059013427734375,9.696516723632811,0.0,0.0021305288720633907,0.005326322180158476,-0.5685982704162598,0.027534244582057,-0.004715061746537685,-0.8221409320831299
1746370418,768072938,-0.4644751220703125,-0.2442085693359375,9.706093530273437,-0.007456851052221867,0.012783173232380343,0.006391586616190171,-0.5685899257659912,0.02668457292020321,-0.003805370070040226,-0.82217937707901
1746370418,787863623,-0.4644751220703125,-0.32082302246093747,9.773131176757811,-0.012783173232380343,0.011717908796348648,0.005326322180158476,-0.5685701370239258,0.027622180059552193,-0.0021667461842298508,-0.8221681118011475
1746370418,808008235,-0.4740519287109375,-0.36391865234375,9.773131176757811,0.0021305288720633907,0.004261057744126781,0.004261057744126781,-0.5685423612594604,0.028801487758755684,-0.0007438674801960588,-0.822149395942688
1746370418,827900939,-0.45489831542968745,-0.33039982910156246,9.749189160156249,0.011717908796348648,-0.0010652644360316954,0.005326322180158476,-0.5685244202613831,0.0288596972823143,0.0006036799168214202,-0.8221598267555237
1746370418,847876908,-0.44053310546874996,-0.3016694091796875,9.730035546875,0.007456851052221867,0.009587379924285258,0.007456851052221867,-0.5684749484062195,0.027393518015742302,-0.00020729609241243452,-0.82224440574646
1746370418,867864493,-0.45010991210937495,-0.28730419921875,9.744400756835937,-0.0010652644360316954,0.02024002428460221,0.004261057744126781,-0.5684263110160828,0.027498634532094002,-0.0013142620446160436,-0.8222734332084656
1746370418,887913903,-0.5123591552734374,-0.28730419921875,9.763554370117188,0.0,0.01810949541253882,0.0021305288720633907,-0.5683597326278687,0.02916865237057209,-0.0024084849283099174,-0.8222594261169434
1746370418,907879248,-0.5458779785156249,-0.2825157958984375,9.777919580078125,0.007456851052221867,0.009587379924285258,0.0031957933080950856,-0.5682834386825562,0.030750693753361702,-0.0036031592171639204,-0.8222501873970032
1746370418,928567295,-0.5458779785156249,-0.239420166015625,9.744400756835937,0.014913702104443734,-0.0010652644360316954,0.006391586616190171,-0.5682047605514526,0.03030295856297016,-0.005361523479223251,-0.8223115801811218
1746370418,947981717,-0.5315127685546874,-0.1771709228515625,9.720458740234374,0.008522115488253563,0.0,0.006391586616190171,-0.5681371092796326,0.029171619564294815,-0.006915858946740627,-0.8223876953125
1746370418,967994807,-0.4740519287109375,-0.15322890625,9.715670336914062,-0.005326322180158476,0.009587379924285258,0.009587379924285258,-0.5680949687957764,0.027369903400540352,-0.007261679973453283,-0.822475790977478
1746370418,988100666,-0.4740519287109375,-0.16280571289062498,9.715670336914062,-0.006391586616190171,0.01384843766841204,0.006391586616190171,-0.5680596828460693,0.025624670088291168,-0.007218282204121351,-0.8225566744804382
1746370419,8113020,-0.49799394531249996,-0.2059013427734375,9.744400756835937,0.0021305288720633907,0.007456851052221867,0.0031957933080950856,-0.5680372714996338,0.0265494454652071,-0.006144295446574688,-0.8225515484809875
1746370419,24016174,-0.5027823486328125,-0.2154781494140625,9.758765966796874,0.0031957933080950856,0.0031957933080950856,0.005326322180158476,-0.5680004358291626,0.027364643290638924,-0.005573295056819916,-0.8225544095039368
1746370419,47866650,-0.49320554199218747,-0.201112939453125,9.715670336914062,-0.0031957933080950856,0.004261057744126781,0.006391586616190171,-0.5679494142532349,0.026844153180718422,-0.005877306684851646,-0.8226046562194824
1746370419,68047711,-0.49799394531249996,-0.2346317626953125,9.6917283203125,-0.011717908796348648,0.009587379924285258,0.008522115488253563,-0.5679200291633606,0.028048571199178696,-0.0045339264906942844,-0.8225932717323303
1746370419,87875357,-0.49799394531249996,-0.3016694091796875,9.730035546875,-0.011717908796348648,0.008522115488253563,0.006391586616190171,-0.5678984522819519,0.028896374627947807,-0.0028739324770867825,-0.8225862383842468
1746370419,108037953,-0.49320554199218747,-0.3687070556640625,9.7683427734375,0.0021305288720633907,0.004261057744126781,0.004261057744126781,-0.5678703188896179,0.029995273798704147,-0.0013714568922296166,-0.8225702047348022
1746370419,127926913,-0.4740519287109375,-0.38786066894531246,9.7683427734375,0.009587379924285258,0.0010652644360316954,0.0031957933080950856,-0.5678601861000061,0.030688384547829628,0.00031412573298439384,-0.8225526809692383
1746370419,148274345,-0.4740519287109375,-0.33039982910156246,9.753977563476562,0.006391586616190171,0.009587379924285258,0.004261057744126781,-0.567855715751648,0.029865765944123268,0.0005483867134898901,-0.8225860595703125
1746370419,167793793,-0.4836287353515625,-0.26815058593749996,9.739612353515625,-0.0010652644360316954,0.01384843766841204,0.005326322180158476,-0.5677966475486755,0.028973834589123726,-0.0011834069155156612,-0.8226580023765564
1746370419,188070056,-0.49320554199218747,-0.2537853759765625,9.720458740234374,0.0021305288720633907,0.008522115488253563,0.006391586616190171,-0.5677201151847839,0.028461655601859093,-0.003054859582334757,-0.8227238655090332
1746370419,208070665,-0.5027823486328125,-0.2442085693359375,9.730035546875,0.009587379924285258,0.0021305288720633907,0.004261057744126781,-0.5676581859588623,0.02812911570072174,-0.004168896470218897,-0.8227731585502625
1746370419,228520659,-0.488417138671875,-0.22505495605468748,9.744400756835937,0.010652644360316953,0.005326322180158476,0.006391586616190171,-0.5676054358482361,0.02733229659497738,-0.0049055228009819984,-0.8228322267532349
1746370419,247889224,-0.4740519287109375,-0.2059013427734375,9.739612353515625,0.004261057744126781,0.012783173232380343,0.006391586616190171,-0.5675791501998901,0.026008563116192818,-0.00522085465490818,-0.8228914141654968
1746370419,267902634,-0.488417138671875,-0.1867477294921875,9.720458740234374,-0.005326322180158476,0.017044230976507126,0.005326322180158476,-0.5675148963928223,0.026298899203538895,-0.006351866759359837,-0.8229184746742249
1746370419,287931692,-0.507570751953125,-0.19632453613281248,9.744400756835937,-0.0021305288720633907,0.010652644360316953,0.0021305288720633907,-0.5674633383750916,0.027323110029101372,-0.006703364662826061,-0.8229179978370667
1746370419,308682684,-0.5315127685546874,-0.2059013427734375,9.720458740234374,0.004261057744126781,0.0031957933080950856,0.005326322180158476,-0.5673983693122864,0.02814307250082493,-0.0068817767314612865,-0.8229336738586426
1746370419,327926158,-0.5363011718749999,-0.22026655273437498,9.739612353515625,0.0021305288720633907,0.0010652644360316954,0.005326322180158476,-0.5673514008522034,0.029089689254760742,-0.006387361325323582,-0.8229371905326843
1746370419,348117011,-0.5027823486328125,-0.2442085693359375,9.725247143554688,0.0031957933080950856,0.0010652644360316954,0.005326322180158476,-0.5673516988754272,0.028534159064292908,-0.004740570671856403,-0.8229674696922302
1746370419,367823759,-0.488417138671875,-0.2825157958984375,9.749189160156249,-0.005326322180158476,0.007456851052221867,0.005326322180158476,-0.5673432946205139,0.028708163648843765,-0.0029024065006524324,-0.822975754737854
1746370419,388403548,-0.4836287353515625,-0.3064578125,9.773131176757811,-0.008522115488253563,0.009587379924285258,0.0031957933080950856,-0.5673577785491943,0.02926452085375786,-0.0011284754145890474,-0.8229504227638245
1746370419,407988149,-0.4740519287109375,-0.3064578125,9.753977563476562,0.0,0.008522115488253563,0.0021305288720633907,-0.567338764667511,0.028919149190187454,-0.0007816443685442209,-0.8229762315750122
1746370419,428100057,-0.47884033203125,-0.3064578125,9.739612353515625,0.009587379924285258,0.0031957933080950856,0.005326322180158476,-0.5672890543937683,0.02918793447315693,-0.0008927069138735533,-0.8230007886886597
1746370419,447938711,-0.4836287353515625,-0.3064578125,9.744400756835937,0.006391586616190171,0.006391586616190171,0.005326322180158476,-0.5672389268875122,0.029218485578894615,-0.0009823256405070424,-0.8230342268943787
1746370419,468062171,-0.4644751220703125,-0.2920926025390625,9.753977563476562,-0.0010652644360316954,0.011717908796348648,0.007456851052221867,-0.5672038793563843,0.028355881571769714,-0.001137439743615687,-0.8230882883071899
1746370419,488004827,-0.4644751220703125,-0.2537853759765625,9.739612353515625,0.0,0.01384843766841204,0.006391586616190171,-0.5671617388725281,0.027110837399959564,-0.002302375854924321,-0.8231568932533264
1746370419,508042813,-0.49320554199218747,-0.239420166015625,9.749189160156249,0.009587379924285258,0.009587379924285258,0.0021305288720633907,-0.567080557346344,0.02763909101486206,-0.004129820503294468,-0.8231881856918335
1746370419,527907292,-0.5027823486328125,-0.21068974609375,9.734823950195311,0.010652644360316953,0.007456851052221867,0.005326322180158476,-0.5670046210289001,0.027591178193688393,-0.005586063023656607,-0.823233425617218
1746370419,548250852,-0.5363011718749999,-0.19153613281249998,9.725247143554688,0.0031957933080950856,0.011717908796348648,0.005326322180158476,-0.5669063925743103,0.028203638270497322,-0.0073522231541574,-0.8232665061950684
1746370419,567913535,-0.5410895751953124,-0.19632453613281248,9.715670336914062,-0.004261057744126781,0.011717908796348648,0.007456851052221867,-0.5668631792068481,0.028706027194857597,-0.007372521795332432,-0.8232786655426025
1746370419,587863455,-0.5267243652343749,-0.22026655273437498,9.734823950195311,-0.0021305288720633907,0.009587379924285258,0.005326322180158476,-0.5668591856956482,0.02868488058447838,-0.006047867238521576,-0.8232930898666382
1746370419,608152294,-0.5123591552734374,-0.24899697265624998,9.739612353515625,0.0010652644360316954,-0.0010652644360316954,0.004261057744126781,-0.5668540000915527,0.028869688510894775,-0.004367354325950146,-0.8233006596565247
1746370419,627763744,-0.507570751953125,-0.2442085693359375,9.734823950195311,0.005326322180158476,-0.0031957933080950856,0.005326322180158476,-0.5668180584907532,0.028511149808764458,-0.004317784681916237,-0.8233382105827332
1746370419,648413998,-0.45968671875,-0.24899697265624998,9.725247143554688,-0.0021305288720633907,0.005326322180158476,0.006391586616190171,-0.5668066740036011,0.027219640091061592,-0.003319329582154751,-0.8233944177627563
1746370419,668038664,-0.45010991210937495,-0.258573779296875,9.744400756835937,-0.005326322180158476,0.01384843766841204,0.006391586616190171,-0.5668025016784668,0.026375360786914825,-0.0021692996378988028,-0.8234286308288574
1746370419,688675222,-0.45968671875,-0.2920926025390625,9.763554370117188,-0.0021305288720633907,0.017044230976507126,0.0031957933080950856,-0.566774845123291,0.027704471722245216,-0.001147821662016213,-0.8234060406684875
1746370419,708054539,-0.47884033203125,-0.3064578125,9.7683427734375,0.005326322180158476,0.007456851052221867,0.004261057744126781,-0.566724956035614,0.028686583042144775,-0.0010242853313684464,-0.8234068751335144
1746370419,728313361,-0.5123591552734374,-0.3016694091796875,9.730035546875,0.009587379924285258,0.008522115488253563,0.004261057744126781,-0.5666310787200928,0.030305903404951096,-0.002083743456751108,-0.8234114646911621
1746370419,748028205,-0.5219359619140624,-0.28730419921875,9.734823950195311,0.004261057744126781,0.007456851052221867,0.0031957933080950856,-0.5665616989135742,0.030625151470303535,-0.0029948928859084845,-0.823444664478302
1746370419,768325588,-0.5027823486328125,-0.27293898925781246,9.730035546875,-0.0021305288720633907,0.011717908796348648,0.005326322180158476,-0.5665545463562012,0.0294139813631773,-0.002910818438977003,-0.8234939575195312
1746370419,788124114,-0.49799394531249996,-0.26336218261718747,9.730035546875,0.005326322180158476,0.008522115488253563,0.0021305288720633907,-0.5665208101272583,0.028723839670419693,-0.00337092368863523,-0.8235398530960083
1746370419,808479674,-0.5027823486328125,-0.2537853759765625,9.734823950195311,0.007456851052221867,0.004261057744126781,0.004261057744126781,-0.566470742225647,0.028730176389217377,-0.003840415272861719,-0.8235719203948975
1746370419,828001394,-0.488417138671875,-0.22505495605468748,9.734823950195311,0.009587379924285258,0.005326322180158476,0.004261057744126781,-0.5664341449737549,0.027197733521461487,-0.0047107869759202,-0.8236446976661682
1746370419,847942803,-0.49320554199218747,-0.2154781494140625,9.730035546875,0.0010652644360316954,0.010652644360316953,0.005326322180158476,-0.566388726234436,0.0272300336509943,-0.005213842261582613,-0.823671817779541
1746370419,868052630,-0.5027823486328125,-0.19153613281249998,9.739612353515625,-0.0021305288720633907,0.01384843766841204,0.006391586616190171,-0.566322386264801,0.027120869606733322,-0.006780019961297512,-0.8237096071243286
1746370419,888098008,-0.5123591552734374,-0.21068974609375,9.715670336914062,-0.0031957933080950856,0.006391586616190171,0.0031957933080950856,-0.5663037300109863,0.02780519239604473,-0.006028428208082914,-0.8237054347991943
1746370419,908013656,-0.5027823486328125,-0.2346317626953125,9.720458740234374,0.0021305288720633907,-0.0010652644360316954,0.005326322180158476,-0.5662844777107239,0.028115935623645782,-0.004722870886325836,-0.8237166404724121
1746370419,928152284,-0.49320554199218747,-0.2442085693359375,9.749189160156249,0.0010652644360316954,0.004261057744126781,0.006391586616190171,-0.5662640929222107,0.027993107214570045,-0.0038522728718817234,-0.8237393498420715
1746370419,947972666,-0.4836287353515625,-0.24899697265624998,9.758765966796874,-0.004261057744126781,0.011717908796348648,0.006391586616190171,-0.5662257075309753,0.027776192873716354,-0.003868553787469864,-0.8237729668617249
1746370419,968524166,-0.49320554199218747,-0.26336218261718747,9.739612353515625,-0.006391586616190171,0.01384843766841204,0.005326322180158476,-0.5661880970001221,0.028724897652864456,-0.0030823328997939825,-0.8237696886062622
1746370419,987938844,-0.5027823486328125,-0.26815058593749996,9.730035546875,0.0,0.008522115488253563,0.0031957933080950856,-0.5661448240280151,0.028808629140257835,-0.003112997394055128,-0.8237964510917664
1746370420,7928829,-0.5267243652343749,-0.2920926025390625,9.730035546875,0.0031957933080950856,0.004261057744126781,0.004261057744126781,-0.5660738348960876,0.030632376670837402,-0.003056803485378623,-0.8237795233726501
1746370420,27931231,-0.5219359619140624,-0.32082302246093747,9.753977563476562,0.005326322180158476,0.004261057744126781,0.008522115488253563,-0.5660609006881714,0.031307727098464966,-0.0015444690361618996,-0.823767364025116
1746370420,48048962,-0.47884033203125,-0.27293898925781246,9.744400756835937,0.005326322180158476,0.0031957933080950856,0.004261057744126781,-0.5660452246665955,0.029533585533499718,-0.0019822195172309875,-0.8238426446914673
1746370420,67881856,-0.4836287353515625,-0.26336218261718747,9.730035546875,0.0010652644360316954,0.011717908796348648,0.005326322180158476,-0.56600421667099,0.028118375688791275,-0.00297610554844141,-0.8239173889160156
1746370420,88408940,-0.469263525390625,-0.26336218261718747,9.734823950195311,0.0010652644360316954,0.011717908796348648,0.0031957933080950856,-0.5659864544868469,0.02722386084496975,-0.0025469691026955843,-0.8239609599113464
1746370420,107942788,-0.45968671875,-0.2537853759765625,9.7683427734375,0.008522115488253563,0.006391586616190171,0.0031957933080950856,-0.5659499168395996,0.026624582707881927,-0.0028529560659080744,-0.8240047097206116
1746370420,127765538,-0.4836287353515625,-0.22505495605468748,9.734823950195311,0.009587379924285258,0.005326322180158476,0.004261057744126781,-0.56586092710495,0.027033071964979172,-0.0042300717905163765,-0.8240466117858887
1746370420,147912710,-0.507570751953125,-0.2059013427734375,9.6917283203125,0.0021305288720633907,0.011717908796348648,0.007456851052221867,-0.5657650232315063,0.027588874101638794,-0.006079651415348053,-0.8240823745727539
1746370420,168074251,-0.5027823486328125,-0.22026655273437498,9.744400756835937,-0.005326322180158476,0.014913702104443734,0.006391586616190171,-0.565753698348999,0.027622759342193604,-0.004944633226841688,-0.8240966200828552
1746370420,188017803,-0.5123591552734374,-0.22505495605468748,9.734823950195311,-0.006391586616190171,0.008522115488253563,0.005326322180158476,-0.5656875967979431,0.028455127030611038,-0.005481543485075235,-0.8241103291511536
1746370420,208085293,-0.51714755859375,-0.2346317626953125,9.715670336914062,0.0031957933080950856,0.0031957933080950856,0.0021305288720633907,-0.5656499862670898,0.02879967913031578,-0.0050004213117063046,-0.8241272568702698
1746370420,228993760,-0.5267243652343749,-0.24899697265624998,9.749189160156249,0.0031957933080950856,0.0021305288720633907,0.007456851052221867,-0.5656003952026367,0.02946697175502777,-0.004694241099059582,-0.8241394758224487
1746370420,247971118,-0.507570751953125,-0.2537853759765625,9.744400756835937,-0.0021305288720633907,0.007456851052221867,0.006391586616190171,-0.5655777454376221,0.028852395713329315,-0.004028263967484236,-0.8241803646087646
1746370420,268107794,-0.488417138671875,-0.28730419921875,9.744400756835937,-0.006391586616190171,0.009587379924285258,0.007456851052221867,-0.5655726790428162,0.02897920273244381,-0.002227373421192169,-0.8241862058639526
1746370420,288004305,-0.4740519287109375,-0.28730419921875,9.744400756835937,-0.0031957933080950856,0.006391586616190171,0.005326322180158476,-0.565554678440094,0.02864537388086319,-0.0013417567824944854,-0.8242121338844299
1746370420,308227415,-0.45489831542968745,-0.28730419921875,9.744400756835937,0.006391586616190171,0.0031957933080950856,0.0031957933080950856,-0.5655286908149719,0.027959514409303665,-0.0010019346373155713,-0.8242539167404175
1746370420,327942643,-0.45968671875,-0.2920926025390625,9.730035546875,0.006391586616190171,0.005326322180158476,0.005326322180158476,-0.5654831528663635,0.02802147902548313,-0.0010566727723926306,-0.8242831230163574
1746370420,348054390,-0.45489831542968745,-0.2825157958984375,9.744400756835937,-0.0010652644360316954,0.011717908796348648,0.006391586616190171,-0.5654599070549011,0.027400344610214233,-0.0008839557413011789,-0.8243200778961182
1746370420,367928981,-0.4740519287109375,-0.277727392578125,9.739612353515625,0.0021305288720633907,0.017044230976507126,0.005326322180158476,-0.5654066801071167,0.027847280725836754,-0.0017694425769150257,-0.8243401646614075
1746370420,388643172,-0.49799394531249996,-0.258573779296875,9.739612353515625,0.004261057744126781,0.011717908796348648,0.004261057744126781,-0.5653204321861267,0.028613600879907608,-0.0034037716686725616,-0.8243680596351624
1746370420,407921815,-0.507570751953125,-0.2442085693359375,9.739612353515625,0.009587379924285258,0.005326322180158476,0.004261057744126781,-0.5652550458908081,0.02882717363536358,-0.00466680433601141,-0.8243991732597351
1746370420,428436259,-0.5315127685546874,-0.22505495605468748,9.739612353515625,0.005326322180158476,0.005326322180158476,0.005326322180158476,-0.5651750564575195,0.02901417948305607,-0.0059713623486459255,-0.8244391083717346
1746370420,448004732,-0.5363011718749999,-0.2059013427734375,9.725247143554688,0.0,0.010652644360316953,0.007456851052221867,-0.5651180744171143,0.02897052839398384,-0.006770187523216009,-0.8244734406471252
1746370420,468154432,-0.5123591552734374,-0.22505495605468748,9.744400756835937,-0.004261057744126781,0.009587379924285258,0.007456851052221867,-0.5651110410690308,0.02822432853281498,-0.005625045858323574,-0.8245128393173218
1746370420,488051487,-0.49320554199218747,-0.24899697265624998,9.734823950195311,0.0,0.006391586616190171,0.005326322180158476,-0.5651164054870605,0.028099538758397102,-0.0038456355687230825,-0.8245235681533813
1746370420,508100513,-0.49799394531249996,-0.258573779296875,9.744400756835937,0.004261057744126781,0.0,0.004261057744126781,-0.5650768876075745,0.028518281877040863,-0.0035022920928895473,-0.8245377540588379
1746370420,528065666,-0.4836287353515625,-0.239420166015625,9.753977563476562,0.004261057744126781,0.0010652644360316954,0.005326322180158476,-0.5650410056114197,0.027230283245444298,-0.004041250329464674,-0.8246034383773804
1746370420,548087268,-0.4836287353515625,-0.239420166015625,9.725247143554688,-0.0021305288720633907,0.011717908796348648,0.006391586616190171,-0.5649996399879456,0.027537021785974503,-0.0038548908196389675,-0.8246225714683533
1746370420,567984259,-0.5027823486328125,-0.277727392578125,9.739612353515625,-0.005326322180158476,0.012783173232380343,0.007456851052221867,-0.5649526119232178,0.029168402776122093,-0.003025891026481986,-0.8246021270751953
1746370420,588773012,-0.49320554199218747,-0.277727392578125,9.734823950195311,0.0010652644360316954,0.006391586616190171,0.004261057744126781,-0.5649401545524597,0.028698012232780457,-0.002324436092749238,-0.8246294856071472
1746370420,608000742,-0.488417138671875,-0.2920926025390625,9.749189160156249,0.006391586616190171,0.0031957933080950856,0.004261057744126781,-0.5649097561836243,0.029258746653795242,-0.0015579822938889265,-0.8246322870254517
1746370420,629331393,-0.49799394531249996,-0.2920926025390625,9.744400756835937,0.005326322180158476,0.006391586616190171,0.006391586616190171,-0.5648434162139893,0.029544565826654434,-0.002462513744831085,-0.8246654868125916
1746370420,647930471,-0.49320554199218747,-0.277727392578125,9.734823950195311,-0.004261057744126781,0.011717908796348648,0.005326322180158476,-0.5648079514503479,0.02890520915389061,-0.002761662704870105,-0.8247113823890686
1746370420,668088012,-0.4836287353515625,-0.27293898925781246,9.710881933593749,0.0010652644360316954,0.01384843766841204,0.004261057744126781,-0.5647959113121033,0.02833784557878971,-0.002202529925853014,-0.824741005897522
1746370420,687891337,-0.49320554199218747,-0.258573779296875,9.744400756835937,0.004261057744126781,0.006391586616190171,0.0031957933080950856,-0.5647313594818115,0.028395628556609154,-0.0034887404181063175,-0.8247788548469543
1746370420,708328371,-0.507570751953125,-0.229843359375,9.744400756835937,0.008522115488253563,0.0021305288720633907,0.005326322180158476,-0.5646529197692871,0.028175991028547287,-0.004987732507288456,-0.8248323798179626
1746370420,727941101,-0.5027823486328125,-0.229843359375,9.739612353515625,0.005326322180158476,0.007456851052221867,0.005326322180158476,-0.5646160840988159,0.028227727860212326,-0.004803349729627371,-0.8248568773269653
1746370420,747916846,-0.49320554199218747,-0.2346317626953125,9.730035546875,0.004261057744126781,0.007456851052221867,0.006391586616190171,-0.5645818710327148,0.027748635038733482,-0.004332136362791061,-0.8248991370201111
1746370420,768088754,-0.4836287353515625,-0.2346317626953125,9.763554370117188,-0.0010652644360316954,0.008522115488253563,0.007456851052221867,-0.5645553469657898,0.0271212887018919,-0.0041662720032036304,-0.8249390125274658
1746370420,787969617,-0.4836287353515625,-0.2154781494140625,9.777919580078125,-0.0031957933080950856,0.012783173232380343,0.005326322180158476,-0.5644943714141846,0.026481935754418373,-0.004983185790479183,-0.8249970078468323
1746370420,808468476,-0.49320554199218747,-0.22505495605468748,9.686939916992188,0.0,0.006391586616190171,0.0031957933080950856,-0.5644402503967285,0.027443798258900642,-0.00485223950818181,-0.8250033855438232
1746370420,827896434,-0.507570751953125,-0.258573779296875,9.749189160156249,0.005326322180158476,0.008522115488253563,0.005326322180158476,-0.5643953680992126,0.0289203729480505,-0.003919427748769522,-0.8249885439872742
1746370420,847908596,-0.51714755859375,-0.3016694091796875,9.773131176757811,0.0031957933080950856,0.007456851052221867,0.006391586616190171,-0.5643728971481323,0.030127251520752907,-0.002530895173549652,-0.8249661326408386
1746370420,867989207,-0.5123591552734374,-0.28730419921875,9.749189160156249,-0.0010652644360316954,0.005326322180158476,0.005326322180158476,-0.5643460154533386,0.030173223465681076,-0.0025954146403819323,-0.8249827027320862
1746370420,887976632,-0.49799394531249996,-0.229843359375,9.715670336914062,0.0010652644360316954,0.0021305288720633907,0.004261057744126781,-0.5643018484115601,0.028740352019667625,-0.0037996864411979914,-0.8250595331192017
1746370420,908010906,-0.469263525390625,-0.229843359375,9.758765966796874,0.0031957933080950856,0.0010652644360316954,0.005326322180158476,-0.56425940990448,0.027132950723171234,-0.004195979330688715,-0.8251408934593201
1746370420,927941594,-0.45968671875,-0.2920926025390625,9.753977563476562,0.0021305288720633907,0.008522115488253563,0.005326322180158476,-0.5642507672309875,0.027418874204158783,-0.0024691664148122072,-0.825144350528717
1746370420,948004732,-0.4836287353515625,-0.2920926025390625,9.7683427734375,0.0031957933080950856,0.01597896654047543,0.007456851052221867,-0.5642142295837402,0.02865232154726982,-0.0015539777232334018,-0.8251297473907471
1746370420,967918236,-0.49799394531249996,-0.258573779296875,9.749189160156249,0.0010652644360316954,0.017044230976507126,0.004261057744126781,-0.5641462802886963,0.02861826866865158,-0.003361030714586377,-0.825171947479248
1746370420,988109345,-0.5267243652343749,-0.229843359375,9.720458740234374,0.0031957933080950856,0.010652644360316953,0.004261057744126781,-0.564058244228363,0.028970472514629364,-0.005311173852533102,-0.8252094984054565
1746370421,7935327,-0.5267243652343749,-0.22026655273437498,9.706093530273437,0.005326322180158476,0.0021305288720633907,0.0031957933080950856,-0.564006507396698,0.028653927147388458,-0.005986566189676523,-0.8252514004707336
1746370421,28042754,-0.5315127685546874,-0.2346317626953125,9.744400756835937,0.005326322180158476,0.0010652644360316954,0.005326322180158476,-0.5639748573303223,0.02929527498781681,-0.005368957761675119,-0.8252547979354858
1746370421,47935585,-0.49799394531249996,-0.26815058593749996,9.749189160156249,-0.0021305288720633907,0.005326322180158476,0.005326322180158476,-0.5639792084693909,0.029105590656399727,-0.003600912168622017,-0.8252680897712708
1746370421,68012260,-0.469263525390625,-0.26336218261718747,9.749189160156249,-0.0021305288720633907,0.009587379924285258,0.005326322180158476,-0.5639859437942505,0.027765080332756042,-0.0025160578079521656,-0.8253138065338135
1746370421,87944932,-0.4740519287109375,-0.229843359375,9.744400756835937,0.0,0.010652644360316953,0.004261057744126781,-0.5639240741729736,0.026722310110926628,-0.003855617018416524,-0.8253852128982544
1746370421,108004486,-0.5027823486328125,-0.22505495605468748,9.730035546875,0.006391586616190171,0.008522115488253563,0.0021305288720633907,-0.5638493895530701,0.027895284816622734,-0.005042532458901405,-0.8253910541534424
1746370421,127912902,-0.5027823486328125,-0.2346317626953125,9.744400756835937,0.0031957933080950856,0.008522115488253563,0.005326322180158476,-0.5638229846954346,0.028046393766999245,-0.004623423330485821,-0.8254063725471497
1746370421,148000425,-0.5410895751953124,-0.2537853759765625,9.7683427734375,-0.005326322180158476,0.008522115488253563,0.007456851052221867,-0.5637498497962952,0.029955070465803146,-0.0048602004535496235,-0.8253878951072693
1746370421,167936681,-0.51714755859375,-0.258573779296875,9.739612353515625,-0.004261057744126781,0.004261057744126781,0.005326322180158476,-0.563734233379364,0.029419630765914917,-0.004041722510010004,-0.8254223465919495
1746370421,188047948,-0.4644751220703125,-0.27293898925781246,9.730035546875,0.0010652644360316954,0.0010652644360316954,0.004261057744126781,-0.5637446641921997,0.028172209858894348,-0.0027224039658904076,-0.825464129447937
1746370421,207944811,-0.45968671875,-0.27293898925781246,9.739612353515625,0.004261057744126781,0.004261057744126781,0.0031957933080950856,-0.5637301802635193,0.027614017948508263,-0.0020506686996668577,-0.8254947066307068
1746370421,228018798,-0.4740519287109375,-0.28730419921875,9.744400756835937,0.004261057744126781,0.010652644360316953,0.006391586616190171,-0.5636811256408691,0.028341058641672134,-0.0016739520942792296,-0.8255044221878052
1746370421,248011759,-0.488417138671875,-0.28730419921875,9.763554370117188,-0.0010652644360316954,0.019174759848570515,0.007456851052221867,-0.5636494755744934,0.028657017275691032,-0.0017791184363886714,-0.8255149722099304
1746370421,268011824,-0.5123591552734374,-0.26815058593749996,9.739612353515625,0.0010652644360316954,0.01384843766841204,0.004261057744126781,-0.5635527968406677,0.02950344979763031,-0.003364158794283867,-0.8255462646484375
1746370421,287928752,-0.5219359619140624,-0.2346317626953125,9.734823950195311,0.0021305288720633907,0.0021305288720633907,0.004261057744126781,-0.5634725689888,0.028901027515530586,-0.005139217246323824,-0.8256131410598755
1746370421,307997363,-0.5219359619140624,-0.24899697265624998,9.730035546875,0.006391586616190171,0.0,0.0031957933080950856,-0.5634455680847168,0.0293071698397398,-0.004443513695150614,-0.8256213068962097
1746370421,327931571,-0.49320554199218747,-0.258573779296875,9.734823950195311,0.004261057744126781,0.004261057744126781,0.006391586616190171,-0.5634526610374451,0.02825004793703556,-0.003334111999720335,-0.8256585001945496
1746370421,348084343,-0.4740519287109375,-0.2154781494140625,9.758765966796874,0.0010652644360316954,0.011717908796348648,0.005326322180158476,-0.5634097456932068,0.026768503710627556,-0.004171005915850401,-0.8257334232330322
1746370421,367986134,-0.4644751220703125,-0.2059013427734375,9.730035546875,-0.0021305288720633907,0.012783173232380343,0.005326322180158476,-0.5633691549301147,0.025674041360616684,-0.004632884636521339,-0.8257933259010315
1746370421,388173851,-0.488417138671875,-0.2154781494140625,9.715670336914062,0.0021305288720633907,0.009587379924285258,0.0031957933080950856,-0.5633085370063782,0.02683965303003788,-0.00500020245090127,-0.8257955312728882
1746370421,408000761,-0.51714755859375,-0.2346317626953125,9.749189160156249,0.0031957933080950856,0.006391586616190171,0.0031957933080950856,-0.5632447600364685,0.028708351776003838,-0.004985639825463295,-0.825776219367981
1746370421,428059547,-0.5267243652343749,-0.2537853759765625,9.763554370117188,0.0,0.007456851052221867,0.007456851052221867,-0.5632035732269287,0.029459649696946144,-0.004495752509683371,-0.8257806301116943
1746370421,447848216,-0.5123591552734374,-0.2537853759765625,9.749189160156249,0.0021305288720633907,0.005326322180158476,0.006391586616190171,-0.5631908774375916,0.028904160484671593,-0.00405160803347826,-0.8258112072944641
1746370421,467925339,-0.49320554199218747,-0.239420166015625,9.739612353515625,-0.005326322180158476,0.009587379924285258,0.007456851052221867,-0.5631504058837891,0.02782663330435753,-0.004084982443600893,-0.8258756995201111
1746370421,488066719,-0.49320554199218747,-0.26815058593749996,9.739612353515625,0.0,0.009587379924285258,0.005326322180158476,-0.5631238222122192,0.028437895700335503,-0.003450168529525399,-0.8258758783340454
1746370421,507870333,-0.4740519287109375,-0.3016694091796875,9.739612353515625,0.006391586616190171,0.006391586616190171,0.0031957933080950856,-0.5631185173988342,0.02872527204453945,-0.0016669346950948238,-0.8258751034736633
1746370421,528066466,-0.488417138671875,-0.27293898925781246,9.749189160156249,0.005326322180158476,0.006391586616190171,0.004261057744126781,-0.5630613565444946,0.028556743636727333,-0.0025235654320567846,-0.8259177207946777
1746370421,547998209,-0.49320554199218747,-0.24899697265624998,9.739612353515625,-0.0010652644360316954,0.011717908796348648,0.005326322180158476,-0.5629993081092834,0.028141537681221962,-0.0036756382323801517,-0.825969934463501
1746370421,568144390,-0.488417138671875,-0.24899697265624998,9.720458740234374,-0.0031957933080950856,0.011717908796348648,0.005326322180158476,-0.5629749894142151,0.02784900926053524,-0.0035699857398867607,-0.8259969353675842
1746370421,588027396,-0.49799394531249996,-0.26336218261718747,9.730035546875,0.0021305288720633907,0.006391586616190171,0.004261057744126781,-0.5629399418830872,0.028899095952510834,-0.0030449728947132826,-0.825986921787262
1746370421,608099495,-0.4836287353515625,-0.27293898925781246,9.763554370117188,0.010652644360316953,0.0010652644360316954,0.004261057744126781,-0.5629203915596008,0.028365183621644974,-0.002379254437983036,-0.8260208368301392
1746370421,627938277,-0.47884033203125,-0.229843359375,9.734823950195311,0.005326322180158476,0.006391586616190171,0.006391586616190171,-0.5628622174263,0.027175575494766235,-0.0037985751405358315,-0.8260952234268188
1746370421,647731682,-0.49320554199218747,-0.19632453613281248,9.720458740234374,0.0010652644360316954,0.01384843766841204,0.007456851052221867,-0.5627782344818115,0.026661446318030357,-0.005598543677479029,-0.826158881187439
1746370421,667886023,-0.5027823486328125,-0.22505495605468748,9.710881933593749,-0.005326322180158476,0.01810949541253882,0.005326322180158476,-0.5627471804618835,0.027820752933621407,-0.005039687734097242,-0.8261454701423645
1746370421,688039691,-0.5363011718749999,-0.24899697265624998,9.734823950195311,0.0021305288720633907,0.008522115488253563,0.005326322180158476,-0.5626828670501709,0.029703207314014435,-0.004979117773473263,-0.8261240720748901
1746370421,707912938,-0.5410895751953124,-0.2537853759765625,9.758765966796874,0.004261057744126781,-0.0010652644360316954,0.004261057744126781,-0.5626387596130371,0.030085889622569084,-0.005023445934057236,-0.8261399865150452
1746370421,727895691,-0.5027823486328125,-0.2346317626953125,9.720458740234374,0.0031957933080950856,0.0021305288720633907,0.004261057744126781,-0.5626309514045715,0.028342874720692635,-0.004608976189047098,-0.826209306716919
1746370421,747723209,-0.49320554199218747,-0.258573779296875,9.730035546875,-0.006391586616190171,0.006391586616190171,0.006391586616190171,-0.5626117587089539,0.028859611600637436,-0.003366155317053199,-0.8262105584144592
1746370421,767897517,-0.4644751220703125,-0.277727392578125,9.763554370117188,-0.005326322180158476,0.009587379924285258,0.005326322180158476,-0.5626212954521179,0.027822382748126984,-0.0019911082927137613,-0.826244056224823
1746370421,787761580,-0.4644751220703125,-0.296881005859375,9.7683427734375,0.0031957933080950856,0.008522115488253563,0.004261057744126781,-0.5626058578491211,0.027874914929270744,-0.0010728761553764343,-0.8262544870376587
1746370421,807922832,-0.47884033203125,-0.2825157958984375,9.753977563476562,0.008522115488253563,0.006391586616190171,0.005326322180158476,-0.5625303983688354,0.028298748657107353,-0.0020815199241042137,-0.8262896537780762
1746370421,827863568,-0.47884033203125,-0.26815058593749996,9.720458740234374,0.0031957933080950856,0.011717908796348648,0.004261057744126781,-0.562492847442627,0.028230229392647743,-0.002088036620989442,-0.8263174295425415
1746370421,847945267,-0.51714755859375,-0.2825157958984375,9.730035546875,-0.0010652644360316954,0.01384843766841204,0.004261057744126781,-0.562419593334198,0.029735036194324493,-0.002897954313084483,-0.8263121247291565
1746370421,867979445,-0.5123591552734374,-0.28730419921875,9.749189160156249,0.0010652644360316954,0.009587379924285258,0.004261057744126781,-0.5623888373374939,0.029959194362163544,-0.002565510803833604,-0.8263260126113892
1746370421,888022839,-0.49799394531249996,-0.26815058593749996,9.734823950195311,0.006391586616190171,0.0031957933080950856,0.0021305288720633907,-0.5623647570610046,0.029100880026817322,-0.0029138722456991673,-0.8263719081878662
1746370421,907988120,-0.5027823486328125,-0.2346317626953125,9.715670336914062,0.010652644360316953,0.0021305288720633907,0.0021305288720633907,-0.5623008012771606,0.028174052014946938,-0.0045359390787780285,-0.8264403343200684
1746370421,928063674,-0.4836287353515625,-0.2346317626953125,9.753977563476562,0.004261057744126781,0.009587379924285258,0.006391586616190171,-0.5622942447662354,0.02693672478199005,-0.0038565299473702908,-0.8264894485473633
1746370421,947976474,-0.49320554199218747,-0.239420166015625,9.753977563476562,-0.004261057744126781,0.01597896654047543,0.006391586616190171,-0.5622408390045166,0.027613919228315353,-0.004110927227884531,-0.8265022039413452
1746370421,968221344,-0.49799394531249996,-0.21068974609375,9.710881933593749,0.0010652644360316954,0.012783173232380343,0.0021305288720633907,-0.5621737837791443,0.02734302170574665,-0.0057150558568537235,-0.8265473246574402
1746370421,987985884,-0.5267243652343749,-0.2154781494140625,9.715670336914062,0.004261057744126781,0.005326322180158476,0.0031957933080950856,-0.5621140599250793,0.02868422120809555,-0.0059486436657607555,-0.8265407681465149
1746370422,8141921,-0.51714755859375,-0.239420166015625,9.739612353515625,0.005326322180158476,0.0,0.005326322180158476,-0.5621095299720764,0.028817111626267433,-0.004710425157099962,-0.8265472650527954
1746370422,27946206,-0.5123591552734374,-0.239420166015625,9.744400756835937,-0.0021305288720633907,0.004261057744126781,0.005326322180158476,-0.5620547533035278,0.02885410375893116,-0.004753162153065205,-0.8265828490257263
1746370422,47992032,-0.4836287353515625,-0.258573779296875,9.744400756835937,-0.006391586616190171,0.008522115488253563,0.005326322180158476,-0.5620670914649963,0.028034329414367676,-0.003142722649499774,-0.8266104459762573
1746370422,68085827,-0.469263525390625,-0.27293898925781246,9.744400756835937,-0.0010652644360316954,0.007456851052221867,0.005326322180158476,-0.5620546936988831,0.027749868109822273,-0.001950579578988254,-0.8266320824623108
1746370422,87969762,-0.47884033203125,-0.296881005859375,9.749189160156249,0.0031957933080950856,0.005326322180158476,0.004261057744126781,-0.5620110034942627,0.02858067862689495,-0.0014259751187637448,-0.8266345858573914
1746370422,108050021,-0.47884033203125,-0.3016694091796875,9.758765966796874,0.007456851052221867,0.008522115488253563,0.004261057744126781,-0.5619810223579407,0.028823722153902054,-0.0010131177259609103,-0.8266472220420837
1746370422,127989445,-0.488417138671875,-0.32082302246093747,9.744400756835937,0.004261057744126781,0.011717908796348648,0.004261057744126781,-0.5619403719902039,0.03001321107149124,-0.00048165430780500174,-0.8266329169273376
1746370422,148030695,-0.49799394531249996,-0.3447650390625,9.744400756835937,0.005326322180158476,0.010652644360316953,0.0031957933080950856,-0.5619158148765564,0.03118916042149067,0.0002150175569113344,-0.8266062140464783
1746370422,167924518,-0.5027823486328125,-0.33039982910156246,9.7683427734375,0.005326322180158476,0.012783173232380343,0.0010652644360316954,-0.5618940591812134,0.0304340198636055,-0.00041725754272192717,-0.8266490697860718
1746370422,188067114,-0.47884033203125,-0.3016694091796875,9.753977563476562,0.01384843766841204,0.008522115488253563,0.0031957933080950856,-0.5618900656700134,0.02885924093425274,-0.0010016084415838122,-0.8267077803611755
1746370422,208006474,-0.469263525390625,-0.27293898925781246,9.739612353515625,0.019174759848570515,0.006391586616190171,0.0021305288720633907,-0.5618563890457153,0.02751428447663784,-0.002030634554103017,-0.8267747163772583
1746370422,228020011,-0.4740519287109375,-0.24899697265624998,9.753977563476562,0.017044230976507126,0.009587379924285258,0.0031957933080950856,-0.5618086457252502,0.027254007756710052,-0.0031379356514662504,-0.826812207698822
1746370422,247918282,-0.49320554199218747,-0.26336218261718747,9.758765966796874,0.011717908796348648,0.014913702104443734,0.004261057744126781,-0.5617749691009521,0.028562307357788086,-0.0028245949652045965,-0.8267921209335327
1746370422,268752540,-0.488417138671875,-0.277727392578125,9.753977563476562,0.012783173232380343,0.011717908796348648,0.004261057744126781,-0.5617658495903015,0.028869956731796265,-0.0023087922018021345,-0.8267892599105835
1746370422,287984494,-0.47884033203125,-0.24899697265624998,9.7683427734375,0.023435817592697295,0.008522115488253563,0.0031957933080950856,-0.5617349743843079,0.02746563032269478,-0.0031813294626772404,-0.8268551230430603
1746370422,308158258,-0.4740519287109375,-0.1197100830078125,9.725247143554688,0.02024002428460221,0.007456851052221867,0.006391586616190171,-0.5616707801818848,0.026357850059866905,-0.00493801012635231,-0.8269261717796326
1746370422,327987920,-0.5027823486328125,-0.062249243164062495,9.672574707031249,0.0010652644360316954,0.01597896654047543,0.007456851052221867,-0.5615783929824829,0.02555636689066887,-0.0066610062494874,-0.8270019888877869
1746370422,348066611,-0.5410895751953124,-0.1149216796875,9.6917283203125,-0.005326322180158476,0.014913702104443734,0.009587379924285258,-0.5614701509475708,0.025675883516669273,-0.008507241494953632,-0.8270548582077026
1746370422,367880209,-0.5793968017578125,-0.21068974609375,9.830592016601562,0.0,0.017044230976507126,0.008522115488253563,-0.5613901615142822,0.027493854984641075,-0.008571251295506954,-0.8270500898361206
1746370422,388016340,-0.5698199951171875,-0.19632453613281248,9.797073193359374,0.010652644360316953,-0.0021305288720633907,0.004261057744126781,-0.561336100101471,0.029266994446516037,-0.00814850814640522,-0.8270301818847656
1746370422,408144600,-0.51714755859375,-0.086191259765625,9.696516723632811,0.010652644360316953,-0.0031957933080950856,0.0021305288720633907,-0.5612882375717163,0.027678251266479492,-0.009294428862631321,-0.8271052837371826
1746370422,428071256,-0.5027823486328125,-0.0383072265625,9.648632690429688,-0.0021305288720633907,0.004261057744126781,0.004261057744126781,-0.5612455010414124,0.026231156662106514,-0.010386737994849682,-0.8271684646606445
1746370422,448028152,-0.507570751953125,-0.105344873046875,9.720458740234374,-0.01597896654047543,0.012783173232380343,0.0031957933080950856,-0.5612397789955139,0.024834753945469856,-0.01040408294647932,-0.8272151350975037
1746370422,468059226,-0.5123591552734374,-0.201112939453125,9.777919580078125,-0.01384843766841204,0.009587379924285258,0.0021305288720633907,-0.5612533092498779,0.0258377343416214,-0.008799606934189796,-0.8271939158439636
1746370422,487894712,-0.5267243652343749,-0.229843359375,9.758765966796874,-0.004261057744126781,0.0031957933080950856,0.004261057744126781,-0.5612475275993347,0.02704581804573536,-0.007308138068765402,-0.8271737694740295
1746370422,508111293,-0.5123591552734374,-0.2537853759765625,9.725247143554688,-0.005326322180158476,-0.0021305288720633907,0.0031957933080950856,-0.5612399578094482,0.02822859399020672,-0.005801137071102858,-0.8271512389183044
1746370422,527928763,-0.4740519287109375,-0.316034619140625,9.734823950195311,-0.009587379924285258,0.0010652644360316954,0.006391586616190171,-0.5612383484840393,0.028650589287281036,-0.003891659900546074,-0.8271491527557373
1746370422,548000957,-0.44532150878906246,-0.354341845703125,9.7683427734375,-0.012783173232380343,0.004261057744126781,0.004261057744126781,-0.5612587332725525,0.02886195480823517,-0.0019768066704273224,-0.8271347284317017
1746370422,567885020,-0.4261678955078125,-0.373495458984375,9.758765966796874,-0.004261057744126781,0.006391586616190171,0.0031957933080950856,-0.5612694621086121,0.02884119749069214,-0.00010907638352364302,-0.8271305561065674
1746370422,590477967,-0.4261678955078125,-0.373495458984375,9.744400756835937,0.006391586616190171,0.007456851052221867,0.006391586616190171,-0.5612602829933167,0.028964241966605186,0.0016794422408565879,-0.8271307349205017
1746370422,608026977,-0.45968671875,-0.373495458984375,9.758765966796874,0.012783173232380343,0.01384843766841204,0.006391586616190171,-0.5612193942070007,0.029953598976135254,0.0026596838142722845,-0.8271206021308899
1746370422,628112612,-0.488417138671875,-0.3687070556640625,9.773131176757811,0.011717908796348648,0.01810949541253882,0.006391586616190171,-0.5611307621002197,0.03125479072332382,0.001580220996402204,-0.8271353840827942
1746370422,648073701,-0.5267243652343749,-0.3399766357421875,9.763554370117188,0.010652644360316953,0.02024002428460221,0.004261057744126781,-0.5610434412956238,0.03191711753606796,-0.000331970804836601,-0.8271707892417908
1746370422,668017093,-0.565031591796875,-0.27293898925781246,9.758765966796874,0.014913702104443734,0.009587379924285258,0.005326322180158476,-0.5609608292579651,0.03203845024108887,-0.0024045004975050688,-0.8272187113761902
1746370422,688080103,-0.5410895751953124,-0.1771709228515625,9.710881933593749,0.017044230976507126,0.0,0.005326322180158476,-0.5608825087547302,0.031177779659628868,-0.004226529970765114,-0.8272973895072937
1746370422,707996615,-0.49320554199218747,-0.1388636962890625,9.696516723632811,0.009587379924285258,0.0,0.008522115488253563,-0.5608144998550415,0.02970537170767784,-0.005431248340755701,-0.8273906707763672
1746370422,728106538,-0.4644751220703125,-0.15322890625,9.734823950195311,0.0,0.009587379924285258,0.008522115488253563,-0.5607491731643677,0.02801329828798771,-0.006100407335907221,-0.8274893164634705
1746370422,748017161,-0.45968671875,-0.17238251953125,9.763554370117188,0.0,0.017044230976507126,0.007456851052221867,-0.5607156753540039,0.026235613971948624,-0.006104849278926849,-0.8275702595710754
1746370422,768077772,-0.47884033203125,-0.1580173095703125,9.758765966796874,0.006391586616190171,0.014913702104443734,0.0031957933080950856,-0.5606721639633179,0.024889301508665085,-0.0067999884486198425,-0.8276358246803284
1746370422,787981099,-0.5363011718749999,-0.1149216796875,9.710881933593749,0.008522115488253563,0.012783173232380343,0.0031957933080950856,-0.5605942010879517,0.02559942938387394,-0.008686184883117676,-0.8276492953300476
1746370422,808095918,-0.5602431884765625,-0.1149216796875,9.744400756835937,0.0021305288720633907,0.008522115488253563,0.005326322180158476,-0.5605059862136841,0.026270627975463867,-0.010444213636219501,-0.827667772769928
1746370422,827998030,-0.814028564453125,-1.3168109130859373,10.620678564453124,0.136353847812057,-0.025566346464760685,0.02663161090079238,-0.5604206323623657,0.027141358703374863,-0.010135759599506855,-0.8277012705802917
1746370422,850442270,-0.469263525390625,-0.1580173095703125,9.193734375,0.09480853480682087,0.02769687533682408,0.035153726389045944,-0.5602660775184631,0.027063501998782158,-0.009765459224581718,-0.8278129696846008
1746370422,868023216,-0.0909796630859375,0.9050082275390624,8.336610180664062,-0.011717908796348648,0.07137271721412358,0.025566346464760685,-0.5599909424781799,0.02635297365486622,-0.0111677972599864,-0.8280041813850403
1746370422,888149012,-0.1197100830078125,0.7661445312499999,9.955090502929687,-0.07989483270237714,0.05006742849348968,-0.005326322180158476,-0.5599464178085327,0.025979287922382355,-0.011815919540822506,-0.8280371427536011
1746370422,908113108,-0.737414111328125,0.08140285644531249,9.481038574218749,-0.11504855909142309,0.02024002428460221,-0.019174759848570515,-0.5600038766860962,0.026173856109380722,-0.012377203442156315,-0.8279839754104614
1746370422,928043700,-1.01514150390625,-0.612915625,10.117896215820313,-0.06072007285380663,-0.009587379924285258,-0.011717908796348648,-0.5600862503051758,0.028228841722011566,-0.011884594336152077,-0.8278679847717285
1746370422,947981812,-0.948103857421875,-1.2018892333984375,10.611101757812499,0.04261057744126781,-0.08841694819063071,0.014913702104443734,-0.5600792169570923,0.02919364906847477,-0.010498201474547386,-0.8278579711914062
1746370422,968068055,-0.430956298828125,-0.82360537109375,9.662997900390625,0.07563377495825037,-0.06711165946999681,0.005326322180158476,-0.5600540637969971,0.029068388044834137,-0.00920188706368208,-0.8278948664665222
1746370422,987922645,-0.12449848632812499,0.0526724365234375,9.495403784179686,0.043675841877299504,-0.012783173232380343,0.011717908796348648,-0.5600445866584778,0.027349356561899185,-0.008563408628106117,-0.8279667496681213
1746370423,8123642,0.0,0.3591302490234375,9.34696328125,-0.01597896654047543,0.05326322180158476,-0.0021305288720633907,-0.560002326965332,0.025765670463442802,-0.008929477073252201,-0.8280420899391174
1746370423,27941688,-0.354341845703125,0.05746083984375,9.323021264648437,-0.04793689962142629,0.07776430383031376,-0.0010652644360316954,-0.5600317120552063,0.024967972189188004,-0.009401436895132065,-0.8280414938926697
1746370423,48120509,-0.7613561279296874,-0.3687070556640625,10.01733974609375,-0.03834951969714103,0.05858954398174324,0.007456851052221867,-0.5599585175514221,0.02689298987388611,-0.009642663411796093,-0.8280279636383057
1746370423,68143166,-0.9002198242187499,-0.5602431884765625,10.184933862304687,-0.014913702104443734,0.008522115488253563,0.014913702104443734,-0.5598774552345276,0.0290828850120306,-0.008987126871943474,-0.8280161023139954
1746370423,88112095,-0.814028564453125,-0.4213794921875,9.591171850585937,0.02876213977285577,-0.05752427954571154,0.005326322180158476,-0.5597803592681885,0.030517227947711945,-0.008606537245213985,-0.8280341625213623
1746370423,108004318,-0.5363011718749999,-0.469263525390625,9.878476049804688,0.030892668644919165,-0.04154531300523612,0.007456851052221867,-0.5597778558731079,0.03126439452171326,-0.007330751977860928,-0.8280203342437744
1746370423,128035423,-0.1867477294921875,-0.316034619140625,9.859322436523437,0.02663161090079238,-0.011717908796348648,0.006391586616190171,-0.5597922205924988,0.030204905197024345,-0.005779641680419445,-0.8280622959136963
1746370423,147922046,-0.076614453125,0.0383072265625,9.246406811523437,0.009587379924285258,0.029827404208887468,0.0010652644360316954,-0.5598301887512207,0.028481798246502876,-0.005405401811003685,-0.8281000852584839
1746370423,170418831,-0.32082302246093747,0.047884033203124995,9.667786303710937,-0.02769687533682408,0.08309062601047223,0.005326322180158476,-0.5598087906837463,0.027339952066540718,-0.006085309665650129,-0.8281483054161072
1746370423,188078531,-0.49320554199218747,-0.28730419921875,10.05564697265625,-0.030892668644919165,0.05752427954571154,0.005326322180158476,-0.5597692728042603,0.02716829441487789,-0.005523446016013622,-0.8281846046447754
1746370423,203605678,-0.6847416748046875,-0.3064578125,9.639055883789062,0.017044230976507126,0.030892668644919165,0.004261057744126781,-0.5597190856933594,0.029198188334703445,-0.005230969283729792,-0.8281513452529907
1746370423,228392300,-0.8188169677734375,-0.37828386230468747,9.849745629882811,0.025566346464760685,0.019174759848570515,0.0021305288720633907,-0.5596469640731812,0.031108718365430832,-0.005940099712461233,-0.8281257748603821
1746370423,248012901,-0.8092401611328125,-0.45010991210937495,9.955090502929687,0.029827404208887468,-0.05113269292952137,0.0,-0.5596150755882263,0.03265537694096565,-0.006041164975613356,-0.8280870318412781
1746370423,268192778,-0.603338818359375,-0.239420166015625,9.557653027343749,0.03728425526110934,-0.07137271721412358,-0.011717908796348648,-0.559670090675354,0.03315162658691406,-0.006481165997684002,-0.8280268311500549
1746370423,288044776,-0.09576806640624999,-0.181959326171875,9.787496386718749,0.023435817592697295,-0.021305288720633905,-0.01597896654047543,-0.5598507523536682,0.03084244579076767,-0.0059897941537201405,-0.8279976844787598
1746370423,308982779,0.023942016601562498,-0.4070142822265625,9.9215716796875,0.0458063707493629,0.06391586616190172,-0.012783173232380343,-0.5600555539131165,0.02945908159017563,-0.005161562003195286,-0.8279151320457458
1746370423,328062443,-0.5363011718749999,-0.40222587890625,9.706093530273437,0.02769687533682408,0.12889699675983513,0.039414784133172724,-0.5599559545516968,0.030021894723176956,-0.00432430999353528,-0.82796710729599
1746370423,348224207,-0.622492431640625,-0.0430956298828125,9.327809667968749,-0.02876213977285577,0.17257283863713463,0.03728425526110934,-0.5595515370368958,0.03220612183213234,-0.006283429451286793,-0.8281458616256714
1746370423,367984203,-0.5410895751953124,0.33039982910156246,9.452308154296874,-0.05858954398174324,0.10972223691126462,0.011717908796348648,-0.5592988729476929,0.03252043575048447,-0.008087796159088612,-0.8282884955406189
1746370423,387818185,-0.8044517578125,0.2154781494140625,9.82580361328125,-0.06711165946999681,0.06178533728983833,-0.0021305288720633907,-0.5591965913772583,0.03276774659752846,-0.009595843032002449,-0.828331708908081
1746370423,407999822,-0.5410895751953124,-0.19632453613281248,9.797073193359374,-0.05326322180158476,0.0681769239060285,-0.01597896654047543,-0.5592290163040161,0.03289692848920822,-0.010336210951209068,-0.828295886516571
1746370423,427933614,-0.44532150878906246,-0.4070142822265625,10.046070166015625,-0.03621899082507764,0.08096009713840883,-0.012783173232380343,-0.5593913793563843,0.032931193709373474,-0.008704958483576775,-0.8282034993171692
1746370423,448089746,-0.40222587890625,-0.6703764648437499,10.390835205078124,0.03195793308095086,0.10439591473110614,0.0010652644360316954,-0.5594828128814697,0.03378630056977272,-0.00743066007271409,-0.828119695186615
1746370423,468055058,-0.0909796630859375,-0.32082302246093747,9.945513696289062,0.06178533728983833,0.14913702104443735,-0.007456851052221867,-0.5595744848251343,0.033709149807691574,-0.007327046245336533,-0.8280618190765381
1746370423,488006706,-0.01915361328125,-0.13407529296874998,9.706093530273437,0.022370553156665602,0.1821602185614199,-0.03302319751698255,-0.5598002076148987,0.03335985168814659,-0.007842696271836758,-0.8279187679290771
1746370423,507816368,-0.01915361328125,-0.3016694091796875,9.6917283203125,-0.006391586616190171,0.2024002428460221,-0.07563377495825037,-0.5603309273719788,0.03353428840637207,-0.00789551343768835,-0.8275521397590637
1746370423,528023701,-0.0526724365234375,-0.44532150878906246,10.165780249023436,-0.012783173232380343,0.2908171910366528,-0.1129180302193597,-0.5612005591392517,0.03457051143050194,-0.007663021795451641,-0.8269221782684326
1746370423,547989301,-0.0383072265625,-0.316034619140625,9.390058911132812,-0.04261057744126781,0.4079962790001393,-0.1374191122480887,-0.5623185038566589,0.03636815398931503,-0.008081509731709957,-0.8260810971260071
1746370423,567995863,0.26815058593749996,0.0718260498046875,9.380482104492186,-0.14168016999221547,0.605070199666003,-0.12783173232380343,-0.5633847117424011,0.03980264067649841,-0.009333576075732708,-0.8251826167106628
1746370423,587815444,-0.1005564697265625,0.3399766357421875,10.199299072265624,-0.14168016999221547,0.8000135914598031,-0.08415589044650393,-0.5641544461250305,0.044843677431344986,-0.01216617040336132,-0.8243609070777893
1746370423,607998233,-0.93852705078125,0.5458779785156249,10.390835205078124,-0.12037488127158157,0.9608685213005892,-0.004261057744126781,-0.5642775893211365,0.051264215260744095,-0.017346516251564026,-0.8238095045089722
1746370423,628073403,-1.7094599853515624,0.3016694091796875,10.534487304687499,-0.14807175660840563,0.9896306610734449,0.05858954398174324,-0.5635876059532166,0.05974545329809189,-0.023461483418941498,-0.8235587477684021
1746370423,647947002,-2.04943662109375,-0.086191259765625,10.63025537109375,-0.17789916081729312,0.9566074635564623,0.07776430383031376,-0.5625274181365967,0.06926638633012772,-0.028990300372242928,-0.8233618140220642
1746370423,667831193,-2.1308394775390624,-0.21068974609375,10.271125122070313,-0.30892668644919163,0.965129579044716,0.08202536157444054,-0.5612592697143555,0.07951339334249496,-0.03331705555319786,-0.823137640953064
1746370423,687978845,-2.0302830078125,-0.2825157958984375,10.376469995117187,-0.36325517268680807,1.034371767386776,0.06391586616190172,-0.5598798990249634,0.09021646529436111,-0.03747003525495529,-0.822795033454895
1746370423,707797306,-1.9967641845703124,-0.181959326171875,10.625466967773438,-0.31425300862935013,1.0705907582118537,0.007456851052221867,-0.5588701367378235,0.09947023540735245,-0.041316449642181396,-0.8222304582595825
1746370423,728035680,-2.346317626953125,-0.105344873046875,10.443507641601562,-0.3547330571985545,1.052481262799315,-0.043675841877299504,-0.5581284165382385,0.10908737033605576,-0.045109376311302185,-0.8213146924972534
1746370423,747972736,-2.9927520751953125,-0.17238251953125,10.611101757812499,-0.4005394279479174,1.0002833054337619,-0.09587379924285258,-0.5576503276824951,0.1193833276629448,-0.048716284334659576,-0.8200003504753113
1746370423,768015618,-3.6343981201171873,-0.047884033203124995,10.319009155273436,-0.45593317862156557,0.8309062601047223,-0.15020228548046904,-0.5575470328330994,0.12938889861106873,-0.051407840102910995,-0.818386971950531
1746370423,787992707,-3.9647979492187497,0.0,9.988609326171874,-0.5571333000445766,0.6412891904910806,-0.19174759848570516,-0.5577507615089417,0.13871599733829498,-0.052156440913677216,-0.8166710734367371
1746370423,808136198,-4.204218115234375,-0.3447650390625,10.510545288085936,-0.5432848623761646,0.4388889476450585,-0.2077265650261806,-0.5581488013267517,0.14676553010940552,-0.05134661868214607,-0.8150420188903809
1746370423,827918563,-4.2137949218749995,-0.39743747558593745,10.338162768554687,-0.5709817377129887,0.1810949541253882,-0.2066613005901489,-0.5586740374565125,0.1528831124305725,-0.04913440719246864,-0.8136928081512451
1746370423,848066823,-4.2329485351562495,-0.316034619140625,9.3852705078125,-0.6796387101882216,-0.12357067457967666,-0.16618125202094447,-0.558984637260437,0.15695904195308685,-0.04474658519029617,-0.8129562735557556
1746370423,868016423,-3.854664672851562,-0.6512228515624999,9.447519750976562,-0.7254450809375845,-0.4037352212560125,-0.10865697247523291,-0.5588051080703735,0.15908074378967285,-0.03831399604678154,-0.8129957914352417
1746370423,887862566,-3.1076737548828124,-1.13006318359375,9.423577734375,-0.7137271721412358,-0.597613348613781,-0.05539375067364816,-0.5582550764083862,0.15920443832874298,-0.030798353254795074,-0.8136686086654663
1746370423,908023754,-2.5474305664062498,-1.3024457031249999,8.968679418945312,-0.7307714031177429,-0.6593986859036194,0.006391586616190171,-0.5574349164962769,0.15748567879199982,-0.02155066281557083,-0.814862072467804
1746370423,927945897,-1.7525556152343749,-1.5370774658203123,8.671798413085938,-0.7414240474780599,-0.5592638289166401,0.043675841877299504,-0.5563734173774719,0.1554093360900879,-0.010946125723421574,-0.8161965608596802
1746370423,948021228,-1.5035586425781249,-1.7717092285156248,8.892064965820312,-0.744619840786155,-0.3611246438147447,0.08202536157444054,-0.5549482703208923,0.15484778583049774,-0.0012090564705431461,-0.8173452615737915
1746370423,967857034,-1.465251416015625,-1.8818425048828125,8.734047656249999,-0.7478156340942501,-0.1629854587128494,0.11078750134729631,-0.5532015562057495,0.15593953430652618,0.007183353416621685,-0.8182905316352844
1746370423,988020142,-1.7429788085937499,-2.2361843505859373,8.863334545898438,-0.7211840231934578,0.02024002428460221,0.11930961683554987,-0.551321804523468,0.15892070531845093,0.014576444402337074,-0.8188871145248413
1746370424,8034607,-2.327164013671875,-2.43250888671875,8.834604125976561,-0.6998787344728238,0.09374327037078918,0.14168016999221547,-0.5492333173751831,0.16384543478488922,0.02120152860879898,-0.8191751837730408
1746370424,28096018,-2.959233251953125,-2.499546533203125,8.365340600585936,-0.6892260901125068,0.07989483270237714,0.2034655072820538,-0.5465525388717651,0.1698905974626541,0.0264431145042181,-0.8195841908454895
1746370424,48178772,-3.6487633300781246,-2.3415292236328122,8.212111694335936,-0.692421883420602,-0.14168016999221547,0.31957933080950857,-0.5428876876831055,0.17476791143417358,0.031459882855415344,-0.8208162784576416
1746370424,68059699,-4.180276098632812,-2.308010400390625,7.790732202148437,-0.6988134700367921,-0.5358280113239428,0.46552055854585084,-0.537916362285614,0.1768372654914856,0.037728700786828995,-0.8233779072761536
1746370424,88091509,-4.290409374999999,-2.5809493896484375,7.498639599609374,-0.706270321089014,-1.0333065029507444,0.6040049352299712,-0.5315269827842712,0.1751641184091568,0.04641251638531685,-0.827431321144104
1746370424,108043477,-4.285620971679688,-2.786850732421875,7.37414111328125,-0.6807039746242532,-1.576591365326909,0.7403587830420282,-0.523618757724762,0.16909047961235046,0.057782404124736786,-0.8330023884773254
1746370424,128108343,-3.9791631591796874,-2.93050283203125,7.556100439453124,-0.5997438774858445,-2.1656825984524364,0.8415589044650392,-0.5143418312072754,0.15797261893749237,0.07137922942638397,-0.8398822546005249
1746370424,147998454,-3.1411925781249996,-3.0454245117187497,7.71890615234375,-0.4442152698252169,-2.750512773833837,0.856472606569483,-0.5041378736495972,0.14120745658874512,0.08677281439304352,-0.8475705981254578
1746370424,168049080,-1.89620771484375,-3.1316157714843746,7.948749511718749,-0.22796658931078279,-3.3108418671865087,0.7488808985302818,-0.4936646521091461,0.11830543726682663,0.10411036759614944,-0.8552544713020325
1746370424,187902582,-0.086191259765625,-3.294421484375,7.752424975585937,0.0031957933080950856,-3.6868802131056975,0.5251753669636258,-0.4842141568660736,0.08964645862579346,0.12234541028738022,-0.8617027997970581
1746370424,208045850,1.2928688964843749,-3.6056677001953124,7.881711865234375,0.15233281435253243,-3.758252930319821,0.2673813734439555,-0.4762085974216461,0.05695405602455139,0.14054153859615326,-0.8661579489707947
1746370424,228080284,2.29843359375,-3.840299462890625,7.589619262695312,0.262055051263797,-3.5952674716069715,0.0010652644360316954,-0.4699785113334656,0.023843005299568176,0.15727226436138153,-0.8682264685630798
1746370424,248346562,3.744531396484375,-3.6727053466796873,8.360552197265624,0.37071202373902995,-2.8367991931524044,-0.2737729600601457,-0.4665267765522003,-0.005797188729047775,0.17005576193332672,-0.8679863810539246
1746370424,268057885,4.1563340820312495,-3.394977954101562,8.901641772460938,0.4261057744126781,-2.074069856953711,-0.4506068564414071,-0.4657028019428253,-0.030046382918953896,0.17849719524383545,-0.8662314414978027
1746370424,288006429,4.108450048828125,-3.0119056884765625,8.56166513671875,0.4101268078722027,-1.2676646788777173,-0.6263754883866368,-0.46757739782333374,-0.04777274280786514,0.18305735290050507,-0.8634691834449768
1746370424,308103648,4.170699291992188,-2.901772412109375,9.457096557617186,0.5528722423004498,-0.471912145162041,-0.8159925580002786,-0.47238048911094666,-0.05918143689632416,0.18372981250286102,-0.8599985837936401
1746370424,328196099,4.065354418945312,-2.935291235351562,10.836156713867187,0.7211840231934578,0.23648870479903636,-0.9885653966374133,-0.47988393902778625,-0.06530226022005081,0.17866282165050507,-0.8564616441726685
1746370424,348348519,3.5482068603515624,-2.834734765625,10.596736547851561,1.0301107096426494,0.8905610685224973,-1.0503507339272515,-0.4893321394920349,-0.06669064611196518,0.1679370105266571,-0.8531726002693176
1746370424,368207365,3.0837317382812497,-2.375048046875,8.537723120117187,1.017327536410269,1.3518205693242213,-1.083373931444234,-0.49951544404029846,-0.06380866467952728,0.15365685522556305,-0.8501778244972229
1746370424,388158661,2.6623522460937497,-2.0877438476562498,9.313444458007812,1.1771172018150233,1.5915050674313527,-1.0972223691126461,-0.510090708732605,-0.05884014815092087,0.1369723379611969,-0.8471032381057739
1746370424,408088485,1.9871873779296874,-2.1835119140624997,10.419565624999999,1.5957661251754796,1.761947377196424,-1.0950918402405827,-0.5205109119415283,-0.052262287586927414,0.11614105850458145,-0.8443034887313843
1746370424,428228233,1.5849614990234373,-2.365471240234375,9.648632690429688,1.7885789880972163,1.810949541253882,-1.066329700467727,-0.5304794311523438,-0.046141915023326874,0.09249439835548401,-0.8413723111152649
1746370424,448056934,1.13006318359375,-1.8770541015625,7.64229169921875,1.6160061494600817,1.748098939528012,-0.9779127522770963,-0.5395205020904541,-0.04002650827169418,0.06990018486976624,-0.8381107449531555
1746370424,468141865,0.45489831542968745,-1.5275006591796874,7.943961108398437,1.4381069886427886,1.5957661251754796,-0.880973688598212,-0.5475263595581055,-0.03374188020825386,0.04908224195241928,-0.8346660137176514
1746370424,488065641,-0.239420166015625,-1.484405029296875,9.878476049804688,1.4476943685670738,1.374191122480887,-0.7733819805590108,-0.5543835759162903,-0.0284650269895792,0.029123447835445404,-0.8312643766403198
1746370424,508020905,-0.44532150878906246,-0.679953271484375,7.857769848632812,1.2964268186505732,1.1323760955016922,-0.6498113059793341,-0.5600345134735107,-0.024564359337091446,0.010876319371163845,-0.8280336260795593
1746370424,528027050,-0.55545478515625,-0.2825157958984375,8.14028564453125,1.0460896761831249,0.9139968861151946,-0.5283711602717208,-0.5645461082458496,-0.021348001435399055,-0.004140922334045172,-0.8251150250434875
1746370424,548188174,-0.469263525390625,-0.354341845703125,9.658209497070311,1.014131743102174,0.7052050566529823,-0.43782368320902676,-0.5681444406509399,-0.0191931314766407,-0.016618547961115837,-0.8225372433662415
1746370424,568053196,0.0718260498046875,0.028730419921875,10.189722265624999,0.965129579044716,0.671116594699968,-0.2940129843447479,-0.5706508755683899,-0.01852249726653099,-0.027972297742962837,-0.820507287979126
1746370424,588142511,1.1061211669921875,1.2737152832031249,10.491391674804687,0.6370281327469538,1.0918960469324877,-0.17363810307316632,-0.5719075798988342,-0.016657426953315735,-0.039012759923934937,-0.8192205429077148
1746370424,608043694,0.679953271484375,1.3838485595703125,11.109095703125,0.5699164732769569,1.4572817484913592,-0.10972223691126462,-0.5722248554229736,-0.010466976091265678,-0.0510421097278595,-0.8184399604797363
1746370424,628187186,-0.16280571289062498,1.3646949462890625,10.888829150390624,0.793622004843613,1.4903049460083417,-0.10652644360316953,-0.5721107125282288,-0.0032989056780934334,-0.0647544339299202,-0.8176094889640808
1746370424,648131602,-0.8858546142578124,1.66636435546875,9.859322436523437,0.8522115488253562,1.2953615542145414,-0.09587379924285258,-0.5718376040458679,0.002250062068924308,-0.07977867871522903,-0.8164754509925842
1746370424,668209492,-1.484405029296875,1.9009961181640624,9.337386474609374,0.7297061386817113,1.0077401564859838,-0.07989483270237714,-0.5715307593345642,0.006656233686953783,-0.09417672455310822,-0.8151313662528992
1746370424,688090003,-1.2210428466796874,1.5275006591796874,10.40041201171875,0.8415589044650392,0.8990831840107508,-0.09800432811491597,-0.571347177028656,0.008916904218494892,-0.1066218912601471,-0.8137043118476868
1746370424,708518332,-1.0869675537109373,1.407790576171875,10.36210478515625,0.891626332958529,0.9363674392718602,-0.10226538585904274,-0.5712980031967163,0.011113991029560566,-0.11744006723165512,-0.8122210502624512
1746370424,728067221,-1.3024457031249999,1.7525556152343749,9.686939916992188,0.6764429168801265,0.9725864300969378,-0.10652644360316953,-0.5711203813552856,0.014392678625881672,-0.1272890567779541,-0.8108093738555908
1746370424,748046037,-1.2785036865234374,2.020706201171875,9.083601098632812,0.4303668321568049,1.014131743102174,-0.1374191122480887,-0.5707747936248779,0.01846199855208397,-0.13640624284744263,-0.8094866871833801
1746370424,768076919,-1.4939818359375,1.9201497314453124,8.954314208984375,0.34301514840220587,0.8894958040864656,-0.14487596330031055,-0.5705546736717224,0.02243330515921116,-0.14397719502449036,-0.8082294464111328
1746370424,788183322,-1.5801730957031248,1.9680337646484374,8.576030346679687,0.2258360604387194,0.8511462843893245,-0.14913702104443735,-0.5704932808876038,0.02669450454413891,-0.1502043455839157,-0.8070089817047119
1746370424,808126618,-2.0159177978515626,2.35589443359375,7.589619262695312,0.0,0.8138620291282151,-0.10865697247523291,-0.5700682997703552,0.03197161853313446,-0.15655934810638428,-0.8059088587760925
1746370424,828226333,-2.389413256835937,2.5857377929687497,7.129932543945312,-0.32810144629776217,0.7882956826634545,-0.03408846195301425,-0.5690576434135437,0.03948822617530823,-0.1606895923614502,-0.8054769039154053
1746370424,848074523,-2.480392919921875,2.4899697265625,7.838616235351562,-0.5858954398174324,0.7329019319898064,0.02876213977285577,-0.5674002170562744,0.04814393073320389,-0.16230455040931702,-0.8058512806892395
1746370424,868157246,-2.748543505859375,2.3415292236328122,8.054094384765625,-0.8032093847678983,0.6604639503396511,0.10439591473110614,-0.5651177763938904,0.057442691177129745,-0.1617073118686676,-0.8069652318954468
1746370424,888053629,-3.0358477050781247,2.27927998046875,8.413224633789062,-0.9353021748358284,0.5922870264336225,0.2013349784099904,-0.5620628595352173,0.06718113273382187,-0.15939980745315552,-0.8088038563728333
1746370424,908728939,-3.294421484375,2.1547814941406247,8.2743609375,-1.0716560226478855,0.4996090204988651,0.3078614220131599,-0.5581059455871582,0.07714580744504929,-0.15546976029872894,-0.8114156723022461
1746370424,928165025,-3.366247534179687,1.7573440185546874,8.508992700195313,-1.1973572260996255,0.35366779276252286,0.39840889907585403,-0.5533893704414368,0.08674784004688263,-0.14991813898086548,-0.8147144913673401
1746370424,948084448,-3.284844677734375,1.20667763671875,9.572018237304688,-1.2112056637680375,0.1384843766841204,0.46658582298188256,-0.5483881831169128,0.09559519588947296,-0.14228011667728424,-0.8184671401977539
1746370424,968121218,-3.2609026611328122,0.9720458740234375,9.337386474609374,-1.2175972503842276,-0.025566346464760685,0.5049353426790235,-0.5433303713798523,0.1031593307852745,-0.13269135355949402,-0.8225224614143372
1746370424,988375272,-3.0933085449218747,0.9193734375,9.102754711914063,-1.2570120345174005,-0.1310275256318985,0.5390238046320378,-0.5378912091255188,0.10960476845502853,-0.12300791591405869,-0.8267581462860107
1746370425,8316488,-2.9640216552734375,0.852335791015625,9.035717065429687,-1.2367720102327981,-0.2034655072820538,0.5667206799688619,-0.5317745208740234,0.11417727917432785,-0.11355194449424744,-0.8314357995986938
1746370425,28221671,-2.978386865234375,0.814028564453125,9.284714038085937,-1.4455638396950106,-0.3227751241176037,0.5997438774858445,-0.5254431366920471,0.11705853790044785,-0.10237138718366623,-0.836496889591217
1746370425,48274025,-2.9975404785156248,0.7230489013671875,9.414000927734374,-1.4423680463869155,-0.3749730814831567,0.6263754883866368,-0.5186454057693481,0.12051013112068176,-0.09071539342403412,-0.8415789008140564
1746370425,68104487,-2.6862942626953124,0.5123591552734374,9.758765966796874,-1.4753912439038979,-0.41651839448839284,0.6253102239506051,-0.511767566204071,0.12271314114332199,-0.07802155613899231,-0.8467279076576233
1746370425,88074663,-2.360682836914062,0.2442085693359375,9.830592016601562,-1.5297197301415144,-0.3611246438147447,0.6135923151542565,-0.5048868656158447,0.12491738051176071,-0.06421088427305222,-0.8516817688941956
1746370425,108160810,-2.2266075439453124,0.028730419921875,9.80665,-1.4913702104443733,-0.23648870479903636,0.5912217619975909,-0.498029500246048,0.12804852426052094,-0.05089594051241875,-0.8561424016952515
1746370425,128051017,-2.2026655273437497,-0.33039982910156246,10.012551342773437,-1.499892325932627,-0.14700649217237394,0.5550027711725133,-0.49129989743232727,0.1319870501756668,-0.03790179640054703,-0.8600972294807434
1746370425,148087178,-2.29843359375,-0.6512228515624999,9.9981861328125,-1.4711301861597712,-0.05219795736555307,0.5262406313996575,-0.4847765266895294,0.13671086728572845,-0.02524019032716751,-0.8635188341140747
1746370425,168068395,-2.6192566162109374,-0.8858546142578124,10.031704956054687,-1.4572817484913592,0.022370553156665602,0.5145227226033088,-0.4782784879207611,0.1421789824962616,-0.013810197822749615,-0.866512656211853
1746370425,188078572,-2.77727392578125,-1.1635820068359375,10.036493359375,-1.4210627576662815,0.08415589044650393,0.5006742849348967,-0.47164127230644226,0.14887608587741852,-0.0037982717622071505,-0.8691237568855286
1746370425,208121646,-2.7629087158203123,-1.4030021728515625,10.01733974609375,-1.3869742957132674,0.1374191122480887,0.47084688072600933,-0.46519142389297485,0.15573620796203613,0.005809204652905464,-0.8713836669921875
1746370425,228180816,-2.925714428710937,-1.66636435546875,9.94072529296875,-1.3262542228594607,0.12463593901570835,0.44315000538918525,-0.45888522267341614,0.16305579245090485,0.014849520288407803,-0.873279333114624
1746370425,248067823,-3.0310593017578125,-2.0254946044921875,10.13226142578125,-1.223988837000418,0.05645901510967985,0.4079962790001393,-0.45287439227104187,0.17029261589050293,0.023560425266623497,-0.8748429417610168
1746370425,268126097,-3.1651345947265623,-2.3127988037109373,10.160991845703125,-1.041828618438998,-0.03621899082507764,0.37284255261109334,-0.4473854899406433,0.17671696841716766,0.03223587945103645,-0.8761153817176819
1746370425,288025936,-3.4668040039062498,-2.4851813232421875,9.95987890625,-0.8351673178488491,-0.14700649217237394,0.34514567727426926,-0.44239312410354614,0.18129509687423706,0.0396297387778759,-0.8774110078811646
1746370425,308146483,-3.6152445068359373,-2.8107927490234372,9.720458740234374,-0.6103965218461614,-0.2908171910366528,0.32810144629776217,-0.43788158893585205,0.1837083250284195,0.04592680186033249,-0.8788638114929199
1746370425,328138868,-3.5960908935546874,-3.1555577880859373,9.447519750976562,-0.39627837020379064,-0.4793689962142629,0.3078614220131599,-0.4338874816894531,0.18365424871444702,0.05153341591358185,-0.88054358959198
1746370425,348110932,-3.361459130859375,-3.3327287109375,9.1554271484375,-0.2002697139739587,-0.7265103453736161,0.2460760847233216,-0.43054547905921936,0.18055883049964905,0.05653625354170799,-0.8825150728225708
1746370425,368077364,-2.916137622070312,-3.327940307617187,8.839392529296875,-0.044741106313331204,-0.9555421991204307,0.15126754991650074,-0.42816731333732605,0.1745191365480423,0.06161488965153694,-0.8845447301864624
1746370425,388137271,-2.70065947265625,-3.0550013183593747,8.341398583984375,0.07137271721412358,-1.1185276578332801,0.07776430383031376,-0.42657986283302307,0.16628769040107727,0.06658647954463959,-0.8865349888801575
1746370425,408087383,-2.5330653564453125,-2.839523168945312,8.0062103515625,0.16937704532903955,-1.2261193658724812,0.022370553156665602,-0.4254538118839264,0.15683871507644653,0.07101450860500336,-0.888452410697937
1746370425,428110136,-2.2170307373046874,-3.0119056884765625,8.384494213867187,0.28336033998443094,-1.2964268186505732,-0.04154531300523612,-0.4249207377433777,0.1458667665719986,0.075051449239254,-0.8902429938316345
1746370425,448062840,-1.9776105712890624,-3.0837317382812497,8.690952026367187,0.360059379378713,-1.3784521802250136,-0.11078750134729631,-0.4250597655773163,0.1335030347108841,0.07890977710485458,-0.8917816281318665
1746370425,468109562,-1.5275006591796874,-2.7198130859375,8.279149340820313,0.42504050997664644,-1.4146711710500914,-0.17363810307316632,-0.42570993304252625,0.12024950236082077,0.08238784223794937,-0.8930416703224182
1746370425,488095770,-1.1061211669921875,-2.6192566162109374,8.02536396484375,0.4697816162899776,-1.3731258580448553,-0.21837920938649752,-0.4268290102481842,0.10658503323793411,0.08566021919250488,-0.8939346075057983
1746370425,508202429,-0.7565677246093749,-2.849099975585937,8.44674345703125,0.5081311359871187,-1.2591425633894637,-0.2492718780314167,-0.4283309578895569,0.0931410938501358,0.08837304264307022,-0.8944538235664368
1746370425,528093564,-0.59376201171875,-2.844311572265625,8.681375219726561,0.5592638289166401,-1.1238539800134386,-0.25992452239173364,-0.43005838990211487,0.08048518002033234,0.09009282290935516,-0.8946816325187683
1746370425,548065341,-0.49320554199218747,-2.50912333984375,8.863334545898438,0.6040049352299712,-0.9768474878410646,-0.272707695624114,-0.43190714716911316,0.06908008456230164,0.09071405231952667,-0.8946815729141235
1746370425,568071358,-0.33518823242187495,-2.24097275390625,8.973467822265624,0.6743123880080631,-0.8053399136399616,-0.30146983539696975,-0.43408679962158203,0.058971405029296875,0.09001978486776352,-0.8944202065467834
1746370425,588164513,-0.258573779296875,-2.0542250244140625,9.485826977539062,0.7733819805590108,-0.6476807771072707,-0.3376888262220474,-0.43663260340690613,0.050416167825460434,0.08740405738353729,-0.8939635753631592
1746370425,608093472,0.2154781494140625,-2.0638018310546875,9.840168823242188,0.8436894333371027,-0.48469531839442137,-0.4154531300523612,-0.4399871230125427,0.041498422622680664,0.08399650454521179,-0.8931034803390503
1746370425,623659500,0.7038952880859375,-1.8770541015625,9.351751684570312,0.9076052994990044,-0.30360036426903314,-0.5145227226033088,-0.4443405270576477,0.03287136182188988,0.07930950820446014,-0.891734778881073
1746370425,648154051,1.2593500732421874,-1.7717092285156248,9.672574707031249,1.027980180770586,-0.04793689962142629,-0.6625944792117144,-0.4499514400959015,0.025401512160897255,0.07261304557323456,-0.8897335529327393
1746370425,667977761,0.8475473876953125,-2.1212626708984375,10.797849487304687,1.230380423616608,0.10972223691126462,-0.7712514516869474,-0.4568077325820923,0.019140351563692093,0.06352680176496506,-0.8870877623558044
1746370425,688109988,0.3447650390625,-2.001552587890625,10.481814868164061,1.3923006178934256,0.11717908796348649,-0.8884305396504338,-0.4645202159881592,0.013957235030829906,0.052814386785030365,-0.8838759660720825
1746370425,708066340,-0.009576806640625,-0.9097966308593749,8.805873706054687,1.3347763383477143,0.022370553156665602,-0.9619337857366208,-0.47296521067619324,0.008776533417403698,0.041590288281440735,-0.8800552487373352
1746370425,728108998,-0.1388636962890625,-0.8188169677734375,9.09796630859375,1.3006878763946998,-0.021305288720633905,-0.978978016713128,-0.4815589189529419,0.003766135312616825,0.02989998459815979,-0.8758955001831055
1746370425,748072326,1.3359645263671873,-0.8954314208984374,9.485826977539062,1.1078750134729631,0.39947416351188575,-0.5677859444048936,-0.4882412850856781,-0.0009068254148587584,0.01977120153605938,-0.8724842071533203
1746370425,768108808,2.9831752685546875,0.2154781494140625,12.378022583007812,0.39095204802363215,1.4615428062354858,-0.4569984430575973,-0.4933140277862549,0.006355963181704283,0.00982153695076704,-0.8697726726531982
1746370425,788092745,1.0103531005859374,-0.5315127685546874,12.976572998046874,0.3004045709609381,1.9526297112460975,-0.2695119023160189,-0.4961053431034088,0.01870189607143402,-0.0013594735646620393,-0.8680599331855774
1746370425,808128970,-0.4213794921875,0.09576806640624999,9.80665,0.5656554155328302,1.3976269400735841,-0.26098978682776536,-0.49847039580345154,0.02937103435397148,-0.013342813588678837,-0.8663063049316406
1746370425,828180524,-0.74699091796875,0.38786066894531246,10.065223779296874,0.6988134700367921,0.9257147949115432,-0.2748382244961774,-0.5007454752922058,0.03570018336176872,-0.02506280317902565,-0.8644949197769165
1746370425,848195022,-0.8714894042968749,0.2920926025390625,10.338162768554687,0.6540723637234609,0.5720470021490204,-0.2950782487807796,-0.5032683610916138,0.03688843175768852,-0.03517067804932594,-0.862625777721405
1746370425,868144910,-1.1923124267578125,0.3064578125,10.060435375976562,0.4697816162899776,0.5336974824518793,-0.2641855801358604,-0.505729615688324,0.03850864619016647,-0.04221084713935852,-0.8607978820800781
1746370425,888158671,-1.944091748046875,0.086191259765625,10.117896215820313,0.2258360604387194,0.5113269292952137,-0.19600865622983193,-0.507495105266571,0.043168019503355026,-0.04781118780374527,-0.8592435121536255
1746370425,908061294,-2.0302830078125,-0.229843359375,9.868899243164062,0.03408846195301425,0.4048004856920442,-0.08948221262666241,-0.5085064768791199,0.048244208097457886,-0.050809215754270554,-0.8582029342651367
1746370425,928166065,-2.288856787109375,-0.05746083984375,9.184157568359375,-0.019174759848570515,0.1800296896893565,0.007456851052221867,-0.5087273120880127,0.0520196296274662,-0.05213706195354462,-0.8577717542648315
1746370425,948097424,-2.1499930908203124,0.6464344482421874,8.465897070312499,-0.2460760847233216,0.05539375067364816,0.11824435239951818,-0.5078897476196289,0.05509631335735321,-0.05233041197061539,-0.8580640554428101
1746370425,968381175,-2.1212626708984375,1.0199299072265624,8.954314208984375,-0.39627837020379064,-0.07776430383031376,0.2545982002115752,-0.5058584809303284,0.057122521102428436,-0.05083133652806282,-0.8592208027839661
1746370425,988147411,-1.6472107421875,0.8044517578125,9.610325463867188,-0.4772384673421995,-0.23755396923506805,0.35579832163458625,-0.5028020739555359,0.05764103680849075,-0.04794273152947426,-0.8611440658569336
1746370426,8249942,-1.4796166259765624,0.6607996582031249,9.299079248046874,-0.6178533728983833,-0.39734363463982236,0.4495415920053754,-0.49895772337913513,0.05679886415600777,-0.043199047446250916,-0.8636833429336548
1746370426,28131637,-1.3551181396484375,0.9002198242187499,8.662221606445312,-0.8500810199532929,-0.46658582298188256,0.5358280113239428,-0.4941958785057068,0.05614066123962402,-0.03620477765798569,-0.8667802214622498
1746370426,48156246,-1.005564697265625,0.833182177734375,8.504204296874999,-1.1504855909142309,-0.46552055854585084,0.5912217619975909,-0.4886901080608368,0.05622672289609909,-0.02660815417766571,-0.8702371120452881
1746370426,67993012,-0.5506663818359374,0.5027823486328125,9.150638745117186,-1.3337110739116824,-0.4282363032847415,0.6029396707939395,-0.48280391097068787,0.05730295553803444,-0.014530908316373825,-0.8737308382987976
1746370426,88168312,-0.1484405029296875,0.1771709228515625,9.797073193359374,-1.394431146765489,-0.3376888262220474,0.5773733243291789,-0.47691017389297485,0.05904993787407875,-0.0014449579175561666,-0.8769651055335999
1746370426,108047991,-0.0909796630859375,-0.2154781494140625,9.811438403320311,-1.4743259794678663,-0.21518341607840244,0.5294364247077525,-0.4712809920310974,0.06201079487800598,0.012081733904778957,-0.8797175884246826
